Timestamp,AccX_filt,AccY_filt,AccZ_filt,AsX_filt,AsY_filt,AsZ_filt,Yaw_filt(deg)
2024-06-18 04:38:41.485223,0.01752613180209337,-0.04032584522930636,0.003298395406280768,-0.17282989205534202,1.481523570260965,0.4464340399276919,0.03582189905281164
2024-06-18 04:38:41.606466,0.018482929407540635,-0.053721011705568,0.006168788222622557,1.0467228395833086,1.765832609425693,0.5437139134469933,0.09615127673536931
2024-06-18 04:38:41.727952,0.01942427489347127,-0.06224384701809249,0.008061624382313577,2.0616858544113374,1.985192468958588,0.5690992977733271,0.1649566938569082
2024-06-18 04:38:41.849444,0.019500845554772488,-0.07030754600449358,0.009130958132993519,2.8677556751418347,2.326787217297344,0.6620753272470692,0.24208934408458213
2024-06-18 04:38:41.970936,0.018546572050462753,-0.07642985711859068,0.010109618536156236,3.4499418992206228,2.6945632285203787,0.7313148271384554,0.32292225059936247
2024-06-18 04:38:42.092426,0.017646081197827575,-0.07842074299679612,0.010180524794726364,3.849742295862859,3.039959178218767,0.6969336183061138,0.4103525770171304
2024-06-18 04:38:42.213543,0.015014884171931423,-0.07954550179396763,0.010157743141294088,4.274898851678755,3.314126312239663,0.7593607756968488,0.4986819556246319
2024-06-18 04:38:42.335159,0.011946830668795684,-0.07889860344946836,0.01097120341217012,4.460088153507731,3.5090060010137343,0.8545780129847733,0.5975942853119794
2024-06-18 04:38:42.456609,0.00814029127746704,-0.0770212972131528,0.011193990543846908,4.166583881111757,3.580298707438067,1.0768440176612253,0.718919380718767
2024-06-18 04:38:42.578391,0.004161518000429556,-0.07406242340874,0.011795707895609782,3.076711310671532,3.6490400933372076,1.101430664597993,0.8531335613091292
2024-06-18 04:38:42.699463,-0.00028235342286477927,-0.07187087843468956,0.01284176154176811,1.4011588601074467,3.1436124955172433,1.0639337421492112,0.9817309643138754
2024-06-18 04:38:42.820745,-0.0036030478691496406,-0.07355510402766935,0.015116642892049215,-1.3374508483003262,0.6264000905310738,1.1391731812815493,1.1186126539165995
2024-06-18 04:38:42.942323,-0.00464492345966887,-0.07991843163977451,0.022669746927698475,-2.0595033014820894,0.5548663609521847,1.2640596258815988,1.2647596711755777
2024-06-18 04:38:43.063736,-0.0032500996002691163,-0.08893052249861083,0.026595555981167644,-0.5318121580502839,0.7156666896310001,1.6633552400661074,1.4423706707306976
2024-06-18 04:38:43.185095,0.0007324300196293212,-0.1028187067475541,0.017292763932523023,1.5458694558936428,1.1439044879461677,2.0590125223332594,1.6740284437041764
2024-06-18 04:38:43.306589,0.004565783693747114,-0.11368866718196269,0.004995217151758365,2.2900387000281106,1.0999382377120248,2.20984792324971,1.9436328279711703
2024-06-18 04:38:43.427950,0.005579380478343441,-0.11866359545637993,0.008421971386489629,2.0229722839786217,1.1719596121293279,2.019733464406066,2.1956960435474007
2024-06-18 04:38:43.549317,0.005677260367863675,-0.12138952211190035,0.013207835206563706,1.7562728945053105,1.854212379210489,1.7022811510789988,2.419340235283829
2024-06-18 04:38:43.670807,0.006715171279339925,-0.12440123118999868,0.011955007629583368,1.814866451303923,2.5326434615057107,1.5007291370501823,2.6082318956978354
2024-06-18 04:38:43.792297,0.007126343485940164,-0.12740341544379413,0.01130711855849766,1.0130072858801193,2.2526645295153194,1.506157798830881,2.7889658161053705
2024-06-18 04:38:43.913664,0.0053630290474597705,-0.13008361604715094,0.01224001147574699,-1.6495333851294771,0.3644783420832001,1.786971463149193,2.9880598774497122
2024-06-18 04:38:44.035280,0.004602418140281788,-0.13626502378330602,0.013631414603236826,-5.16002572558105,-0.638109954075185,1.7549368492544546,3.206489608389995
2024-06-18 04:38:44.156520,0.007616999449865834,-0.1485740400678311,0.02389282921162193,-4.4988079590137415,1.328451250285004,1.9993432337618273,3.4313120916543385
2024-06-18 04:38:44.277760,0.010529711700551864,-0.16487544919455227,0.038332871794980475,-2.136197430021485,1.4192153804846934,2.7165438381180613,3.7201294606057624
2024-06-18 04:38:44.399209,0.014238123338048856,-0.1816412450612768,0.028093682002374255,0.03199204655652855,0.7213454203935837,3.2730462445547843,4.091078097003427
2024-06-18 04:38:44.520742,0.0182903915000936,-0.19516397021590567,0.021294190432534183,1.9094036245915083,-0.02704562535208324,3.4152494538495906,4.503590161539261
2024-06-18 04:38:44.642232,0.020424554348453878,-0.2033856794255637,0.020119226886722477,3.749886851065635,-0.36396787065052033,2.980144995144718,4.890313704616255
2024-06-18 04:38:44.763553,0.023309954575937625,-0.20662608112127445,0.021082377065772887,5.369715585660684,-0.8210805793436513,2.8565536929384363,5.2450356640306035
2024-06-18 04:38:44.884964,0.02759969749328669,-0.2059192711701771,0.022806967112788717,6.542998667855865,-0.8462900369196208,2.619886645927886,5.57287785212838
2024-06-18 04:38:45.006329,0.03188765443579137,-0.20158366448050197,0.03539297159009639,6.219708690215145,-0.42890448837771744,1.2448729012334934,5.827812219852311
2024-06-18 04:38:45.127703,0.036660566251407255,-0.19564565096603845,0.04434315252011206,5.863392269939496,-0.8896346623970935,-1.1439790717457816,5.784792564391968
2024-06-18 04:38:45.249187,0.04146788044048496,-0.19065991638263058,0.02303543121130528,8.390763622436724,0.7717705519413349,-0.5393111729193192,5.665403040368004
2024-06-18 04:38:45.370552,0.048197882053818336,-0.183326753981668,-0.002879821559540932,9.10531439832186,1.8134045533611263,0.539942294769569,5.682483556821473
2024-06-18 04:38:45.492418,0.05077972352494056,-0.17204298684135705,0.0003430598825427556,9.504741792121067,2.208555577693452,1.1706565388814991,5.797718042189262
2024-06-18 04:38:45.613653,0.04983097219653095,-0.1588273354142896,0.009365382836458236,10.311106856593877,2.603290480427831,1.5214144002859586,5.966588850923709
2024-06-18 04:38:45.735269,0.0485901972166856,-0.14864685630055946,0.011588403057811926,10.099015450744817,3.245170923046794,1.752146502372855,6.170295521570671
2024-06-18 04:38:45.856639,0.04569977615842495,-0.13602063241161633,0.015398972613167111,7.4691134481719565,4.820134856423023,1.6776924095532169,6.385958170466092
2024-06-18 04:38:45.978087,0.03991386447425551,-0.1244570523031327,0.026834292315662336,3.6860118450460413,5.542825204426415,1.5991758814194297,6.572599377675756
2024-06-18 04:38:46.099617,0.03129976241860114,-0.11604117095344728,0.04502241028608866,4.1041912758174846,3.8760355693157686,1.7774653276899284,6.792982854177519
2024-06-18 04:38:46.221089,0.02544677827049079,-0.11323735412939494,0.049870018156721804,5.576399045502175,2.7683786221949727,1.2454793967751703,6.964393158521975
2024-06-18 04:38:46.342604,0.022765935181986392,-0.1118494061759272,0.035602580218595824,6.398012828913602,1.4021969779206047,0.7155538967375145,7.080253495662575
2024-06-18 04:38:46.464095,0.020554939671547222,-0.10733440890494363,0.028892857981446838,9.013602027612304,1.0823643918277355,0.4758458682363516,7.142701721018884
2024-06-18 04:38:46.585457,0.021687752211544897,-0.10206229013903168,0.01474248873350565,10.639498547982544,1.7070808295367998,1.1211859892934561,7.244161932837092
2024-06-18 04:38:46.707075,0.02545531609744277,-0.09388856905502048,-0.022348434565219285,11.008272679828686,2.4795039804201013,1.6742156696346733,7.4285314165561065
2024-06-18 04:38:46.828212,0.02438923698917486,-0.07779826713559143,-0.00797597849041788,11.045401295620895,3.2670680056345143,1.8850115348467498,7.646719688871176
2024-06-18 04:38:46.950124,0.021312122254320384,-0.061700581380447976,-0.00031712170814730855,10.81913288219793,3.189674983346376,2.2054411003069854,7.900955580239084
2024-06-18 04:38:47.071239,0.0184343082527741,-0.04645410267692973,0.004233347855851235,10.996714256845156,0.12352459725397424,2.6476523056356425,8.193841632217318
2024-06-18 04:38:47.192731,0.017515332859488895,-0.0306697204132225,0.0014191431279015428,11.378075523343945,1.5368559160316904,1.6349897030103975,8.49405289122498
2024-06-18 04:38:47.314228,0.022118711720372563,-0.010697977498190393,0.01784459915014279,11.571464477775992,10.527714951018888,-1.5631811466289975,8.43775299730923
2024-06-18 04:38:47.435717,0.012352692594163179,0.005636984215341123,0.024233495573466483,9.504109865888807,8.237455622763873,-1.399601934363664,8.24200553921937
2024-06-18 04:38:47.557081,-0.005543829270078146,0.01967522082221703,-0.025121516060204675,5.279003267387635,5.485083510050157,-1.1467631092653092,8.093026745116648
2024-06-18 04:38:47.678696,-0.018260768680617843,0.030336503800763765,-0.027625248510320416,1.3203704211884968,2.8702612501776343,-0.797623222405392,7.976864023670603
2024-06-18 04:38:47.800309,-0.024198352624991978,0.029451145598949895,-0.023180881645670566,-2.417798107260507,0.9033732961116889,-0.7182374297869055,7.890281396943132
2024-06-18 04:38:47.922056,-0.024625074829767193,0.018423827713732722,-0.019500821120019596,-5.161616343205973,-0.3929176132634237,-0.996893920708255,7.784403255087698
2024-06-18 04:38:48.043243,-0.02259548473475803,0.005712620451574898,-0.012971405998337593,-6.458916443443955,-1.1790175832132852,-1.2573757266771641,7.640796276745305
2024-06-18 04:38:48.164784,-0.019474301863213035,-0.013114375952328505,-0.0037117678881013467,-6.477951795637367,-1.9304088242578894,-0.6587593255000758,7.523341885444005
2024-06-18 04:38:48.286395,-0.014564240528241236,-0.032658997679523405,0.004009717070945803,-5.677894663396139,-2.3739098174485624,0.08633874461143497,7.499605345859092
2024-06-18 04:38:48.408014,-0.006519652827756118,-0.053519079644663695,0.010918493813709646,-4.04801352021885,-2.198813346825377,0.4119327167549559,7.530498557773031
2024-06-18 04:38:48.529378,0.0006615577818790998,-0.07089125179697907,0.014720603161487879,-1.905521127959412,-1.185696955232693,0.7741090798111931,7.60908785454163
2024-06-18 04:38:48.650994,0.009269428267916373,-0.09086469142533797,0.01629231812211552,-0.2820269651722335,0.14978769782821133,0.8167942936869204,7.708150387727713
2024-06-18 04:38:48.772419,0.015978301877547837,-0.10599299804842763,0.015739623392378402,0.7099432656529805,0.8609033354905808,0.8870973065205385,7.810092934673049
2024-06-18 04:38:48.893905,0.01998690955370876,-0.1158353306106151,0.014688550610627148,1.7190649922400343,1.1017309142053506,1.0472434362632228,7.930269220969389
2024-06-18 04:38:49.015269,0.02221987779516491,-0.11936829358674753,0.013912508031951645,2.938603358563822,1.0860257973566014,1.118043102110087,8.061617366835476
2024-06-18 04:38:49.136887,0.025189433326129922,-0.12095220093428774,0.013121913734721265,4.243458443104956,0.9974240428033058,1.3746185395503923,8.219099429456106
2024-06-18 04:38:49.258153,0.028204692955722095,-0.12132818804071865,0.013949673190291358,4.015377971644951,1.4516240992957046,1.6196697193362517,8.402587189516058
2024-06-18 04:38:49.379688,0.03056067553874549,-0.11956223813352099,0.017542605856645133,2.1247191061836697,1.9624663724257054,1.9770331484767727,8.628261757076634
2024-06-18 04:38:49.501305,0.029398657211900256,-0.11880250647821405,0.02215195964987669,1.948535525725278,2.0911878214791706,2.204426097221561,8.886019674082204
2024-06-18 04:38:49.622670,0.027365004449333534,-0.12195539326659942,0.021124637447759238,1.5514579384410603,2.3481853866269096,2.1667231130902294,9.153597378677711
2024-06-18 04:38:49.744160,0.025311883490651173,-0.1280614215177295,0.018993475012148587,0.6151125094305273,2.4938315018573673,1.9798873821325988,9.402971894906132
2024-06-18 04:38:49.865903,0.022448837010641418,-0.13477305195463674,0.01612747981698084,-0.010629037492517509,2.9665553657549744,1.9658842146721918,9.642083044440753
2024-06-18 04:38:49.987017,0.020582033711377568,-0.14220979970825207,0.01426220756752035,-1.1747363244842464,3.824252227233211,2.0778545600752976,9.886258569402846
2024-06-18 04:38:50.108718,0.01857762889528463,-0.15123011241561501,0.016913624435831547,-3.128464498974703,3.9341889362325135,2.2084657701179635,10.14950695331823
2024-06-18 04:38:50.230124,0.014713980746043855,-0.16211036852627878,0.0218886759767166,-4.458364350249654,3.442354521644175,2.2774309825698755,10.421608008250272
2024-06-18 04:38:50.351863,0.011599866232962773,-0.17594665603682444,0.0269228665835265,-4.033907742676667,2.7367271692187556,2.5284089597163093,10.713943140200083
2024-06-18 04:38:50.472982,0.010609705888559718,-0.18914121601801612,0.028073438268874294,-2.6325678701621316,1.9180724867905594,3.0114490200250787,11.053111043143664
2024-06-18 04:38:50.594487,0.010452895220864305,-0.20432484721672864,0.03061602347553914,-0.7112120613283904,1.272815386030873,3.4724613299789797,11.454435496858766
2024-06-18 04:38:50.716089,0.011293253712109801,-0.21770149150711662,0.023148184612569612,1.9848753585559038,0.4615292955562913,3.95853463822208,11.908033156505487
2024-06-18 04:38:50.837827,0.0127899543460868,-0.2251895733027248,0.015072021047519582,4.612667957338669,-0.15864770197228975,4.366713006034396,12.423358409383852
2024-06-18 04:38:50.958945,0.015479505913350679,-0.22991482936958005,0.0034929100641389204,7.540605914809402,0.4678438586487995,4.4997946875611925,12.96814587968392
2024-06-18 04:38:51.080433,0.01724721666747251,-0.2288868267322751,-0.007778203259097618,10.398439481803806,1.2969249465065371,4.4644186169763795,13.512744070267843
2024-06-18 04:38:51.201798,0.01496760016180339,-0.21924806832137916,-0.002966704740977956,12.099697524668363,2.352621080966901,4.510575317765922,14.052299896942596
2024-06-18 04:38:51.323538,0.012458537862132977,-0.20567944064620455,0.00696498189157874,12.214584757261695,3.5018236601743227,4.677622343407106,14.61578054575055
2024-06-18 04:38:51.445031,0.010545942261802395,-0.1840448245313009,0.015154925151085717,12.03145025950235,4.18252410340239,4.520671210004651,15.175459968037709
2024-06-18 04:38:51.566771,0.008540499228567854,-0.16044232341323159,0.018452984211806647,11.942309768947547,4.508163902089975,4.219189309531244,15.702158840449643
2024-06-18 04:38:51.688088,0.006540049919719702,-0.137244577675871,0.016052131297924616,12.182650925854286,4.684198370752886,4.2354249551691865,16.21439533654834
2024-06-18 04:38:51.809503,0.0037937698860549397,-0.12103903112069314,0.01232072816879906,11.380825606994122,3.745556801533462,4.064697345367118,16.71856331471121
2024-06-18 04:38:51.930994,-0.004411973919443751,-0.1036144092613124,0.00964385301675627,10.4695152907618,1.9988806057038728,3.788802807249828,17.195240940529008
2024-06-18 04:38:52.052619,-0.011264333941882287,-0.08716828721897378,0.008866083181036799,8.666895660780831,0.12479254615948669,3.7319776331362,17.650452455845635
2024-06-18 04:38:52.173980,-0.012539306490065768,-0.07561392646368538,0.012948349673720395,6.67743731608964,-0.24597055580294946,3.791977678501201,18.102463964431422
2024-06-18 04:38:52.295720,-0.010238976105389248,-0.06631299702572852,0.026227005288125365,4.657634963797823,-0.20262925880659136,3.954372443805695,18.57516441413091
2024-06-18 04:38:52.417082,-0.0041515376544309125,-0.06045678656803696,0.02592208037094354,2.254386741984258,0.21563879711435535,4.059465284742231,19.0642095627641
2024-06-18 04:38:52.538699,0.0028977700073271623,-0.058751770122446326,0.016322797015697374,1.0172599829450357,0.9636197052714539,3.8443601158624947,19.546810416313914
2024-06-18 04:38:52.660312,0.009580626775516226,-0.06167328470389346,-6.131303669706042e-06,0.6258105630467117,1.798648932663259,3.358080855676052,19.982510244726917
2024-06-18 04:38:52.781678,0.012352187806186344,-0.0635848104871124,-0.00935668912688744,0.13977985670345264,2.267644523424473,3.110528528442307,20.369890265033224
2024-06-18 04:38:52.903169,0.010673140813317829,-0.06744431741077508,0.0011385831788308558,0.8924286238739026,3.0593868206403387,2.975145159684742,20.74047597233403
2024-06-18 04:38:53.024659,0.009497014223468133,-0.07428514668608843,0.007110842072547901,1.8012275386541365,3.401383749936734,2.5545739259710145,21.069254338618563
2024-06-18 04:38:53.146276,0.005514282426183885,-0.08134863765366654,0.013764088838675793,2.1943105180912545,3.2562318496468565,2.425198952583648,21.373894280601974
2024-06-18 04:38:53.267640,0.0013252810887623109,-0.08750147242373003,0.017552418306430437,2.5747362412947203,2.9852775138031538,2.3341750526171525,21.66055441958608
2024-06-18 04:38:53.389084,-0.002109498504177123,-0.09295753768607642,0.018280079522163276,3.308116593925993,2.6826017174096743,2.479517511914826,21.949545765822965
2024-06-18 04:38:53.510623,-0.0026112814878904,-0.09464558524792231,0.01490655399906512,4.2582871269610925,2.9368956098908994,2.4156371285672886,22.24964214129546
2024-06-18 04:38:53.632111,-0.002512601211733407,-0.09278798094497714,0.01019598883012883,5.524314967388852,3.478201398621477,2.261491222145785,22.528949251774236
2024-06-18 04:38:53.753622,-0.0025197788120137556,-0.08899361938383535,0.004077649959982051,7.255224185211873,3.376188099749955,2.3785966216489407,22.809324304171223
2024-06-18 04:38:53.875093,-0.005071954384870773,-0.08049044022944576,0.0012662978560658868,9.276831785281324,2.4500085613817864,2.798179994500725,23.132130587280567
2024-06-18 04:38:53.996462,-0.00924765331937969,-0.0685472600292026,0.0030397682121512852,10.575261399708996,1.7053840122397592,2.7798362238960173,23.473987549220183
2024-06-18 04:38:54.117955,-0.01153410207582249,-0.058265177751908814,0.00598171931132595,11.169356183675173,1.578469851695909,2.6030468621885476,23.79860412024899
2024-06-18 04:38:54.239570,-0.01345207658330906,-0.04370621904012533,0.008769071646684405,11.53032272734881,1.7537578545643104,2.7654897644421808,24.122287373384314
2024-06-18 04:38:54.360937,-0.014616691095620148,-0.02778248059461381,0.007525098064263458,11.919488698632785,1.995065284588783,3.139940187945357,24.484434109923683
2024-06-18 04:38:54.482441,-0.01409952159340899,-0.010270693195168464,0.0028588808180887632,12.060414812801064,2.140826230602768,3.394895123197446,24.885467065876778
2024-06-18 04:38:54.603975,-0.013488321107637157,0.004363242143413342,-0.0010780383051791997,11.830465270859568,1.7900182834733702,3.4965907134297938,25.306706131525498
2024-06-18 04:38:54.725463,-0.011881325717023807,0.025293514183060917,-0.005627250367526943,11.434474907809236,1.0424174068451395,3.5552823720426217,25.735476952592965
2024-06-18 04:38:54.846828,-0.00880334926219271,0.04619498862012664,-0.008177280594201551,11.2053039005105,0.16702459513735124,3.8019784232913607,26.181386803607396
2024-06-18 04:38:54.968513,-0.006252632257951665,0.0631385256076837,-0.00893505974882688,11.720475992039345,-0.287445074394844,4.040950674456408,26.6633819559957
2024-06-18 04:38:55.090004,-0.0033591656022070003,0.08339523687248653,-0.010075887155219952,12.316603802360333,-0.15423143901685624,4.163424828382407,27.168607369019295
2024-06-18 04:38:55.211496,-0.0002912610964216062,0.10341219088927056,-0.015189619240006431,11.675200566263875,0.4874320653481813,4.119798579546078,27.670924385012295
2024-06-18 04:38:55.332859,0.0037561573106161335,0.12033115988936671,-0.022339247556529076,10.059028258433875,1.0651137119674376,3.7366143202091098,28.14826130932461
2024-06-18 04:38:55.454225,0.008541431895464045,0.13555247757767494,-0.03090218112367916,8.812613615213273,1.2928064201709302,3.351658242347701,28.57290658069419
2024-06-18 04:38:55.575716,0.013193961104335959,0.15505367947381252,-0.03459769641713149,8.32418966013196,1.0884723828698717,3.2415197635505715,28.96948893805616
2024-06-18 04:38:55.697458,0.018240639869912888,0.16701244477845822,-0.03492414823680744,8.080678751333004,0.6773689591397217,3.353977315419668,29.371146267742766
2024-06-18 04:38:55.818947,0.020445201982492892,0.17404188658157307,-0.03203765224120174,7.340150168813418,0.6468095198906454,3.139017400589607,29.766664198660123
2024-06-18 04:38:55.940438,0.022376470732020495,0.18190396344165122,-0.031771738327411245,6.231121229205111,1.1498559752405522,2.712063240896238,30.117662463532216
2024-06-18 04:38:56.061803,0.024143454959925113,0.18735372887494728,-0.0342805819722443,5.543106988522243,1.8447391526363275,2.16349869299705,30.40657727684654
2024-06-18 04:38:56.183170,0.025354610162817967,0.1909390482001505,-0.0389976695882343,4.618742761106303,2.553900104396359,1.6854253921523439,30.63618538079152
2024-06-18 04:38:56.304785,0.026320713865104876,0.1930310525990808,-0.04324767021314593,3.509995106492821,2.9293398528922974,1.294045583970947,30.808255051190635
2024-06-18 04:38:56.426402,0.0265114630390523,0.19274252721151455,-0.04587805332376635,2.205094079238376,2.8561405745447366,1.339855527334951,30.967148778344168
2024-06-18 04:38:56.547893,0.02583974716136038,0.18908160245886238,-0.047600256270489194,-0.009830944972138614,2.8666833331105654,1.3793855390457737,31.13659872833854
2024-06-18 04:38:56.669506,0.022884106574790147,0.17816987928370603,-0.04660397063514551,-3.3857235993949595,3.3108499505635467,0.9446972606056939,31.277069766054154
2024-06-18 04:38:56.791005,0.019391571074139538,0.15995215280706288,-0.04255992410567287,-6.7693787818323,3.716057965401937,0.6824708540134565,31.36891490332068
2024-06-18 04:38:56.912488,0.017088698787194486,0.14571458650669183,-0.037671238190816206,-8.130468991690226,3.8114969440724886,0.6851852168364675,31.451498059533893
2024-06-18 04:38:57.033854,0.014077204403904404,0.12984015823385228,-0.030139741274457458,-7.568256926746111,3.5694435523548544,0.8562273327787168,31.54811632054112
2024-06-18 04:38:57.155345,0.011069002320585396,0.111267446533651,-0.022499565512550796,-6.438197699339443,3.2715718522078405,1.1454534806723984,31.671122439492894
2024-06-18 04:38:57.277087,0.00854034123185923,0.09329274452902211,-0.017507361465593486,-5.998977047215748,3.0972216120151668,1.2266801863445305,31.81991812720662
2024-06-18 04:38:57.398452,0.00453299647337178,0.0681963326567535,-0.012854140002118918,-6.466611254253624,3.2142720956370363,1.1277398646875172,31.962180981610384
2024-06-18 04:38:57.519943,0.00031453505638607865,0.042243151433107584,-0.00906897288988853,-7.153820549776504,3.339945402045817,1.044137099379006,32.092222963750274
2024-06-18 04:38:57.641434,-0.004521465334444679,0.017290007362163018,-0.005517440530439523,-7.039528842223366,3.5686308588467077,0.9812735663172476,32.21432024987744
2024-06-18 04:38:57.762917,-0.00783342177291255,-0.003750612815745659,-0.0004629249466806533,-6.055046365380797,3.8572180238439495,1.2079819750782281,32.350115292646414
2024-06-18 04:38:57.884753,-0.010638159633698158,-0.024690513744498054,0.002292708046394693,-4.6769649546470875,3.8724045192455083,1.2924134853032148,32.504176239400216
2024-06-18 04:38:58.007655,-0.012606262152099996,-0.04272679925112091,0.005128324799409982,-3.2385953326632677,3.433162448490844,1.4453789710914193,32.67416663405611
2024-06-18 04:38:58.130273,-0.013543753239458237,-0.05852234131676162,0.005249963513903469,-1.6636240492852008,2.635246209852988,1.5705838313875793,32.86024742614561
2024-06-18 04:38:58.252587,-0.013575625410985304,-0.07140203229932614,0.006203167254547302,0.05252574124566538,1.7252915730495446,1.785850963979026,33.067597500552516
2024-06-18 04:38:58.375250,-0.014521219597259329,-0.08185322115121285,0.00717623654957186,1.9241726659906426,1.0776484156272688,1.8037469521989102,33.285686115929266
2024-06-18 04:38:58.497614,-0.01546438794651909,-0.08924998475281444,0.009033591675796274,3.6207496763300537,0.8389124651190696,2.0985419354150827,33.525154342784816
2024-06-18 04:38:58.620312,-0.016472053690757223,-0.09356716187975508,0.009203708605038706,4.869836617283621,1.0242660066571165,2.413283954747955,33.80571536102301
2024-06-18 04:38:58.742972,-0.016540548444045382,-0.09561610851351866,0.008224264155422607,5.717667809997104,1.285936418413054,2.7062616642720756,34.12930011311264
2024-06-18 04:38:58.866215,-0.01651770525879561,-0.09385408875003713,0.006274858309135202,6.406307364976344,1.4043366089264733,2.7018688145260703,34.4625249290958
2024-06-18 04:38:58.988704,-0.015708873939261285,-0.08957423013759698,0.005305656118097824,7.0787086622954485,1.3835193766330396,2.6987042724921753,34.793384762121654
2024-06-18 04:38:59.110876,-0.013863728055222018,-0.08202560385753198,0.00675299280135292,7.707403465964841,1.4243988788810156,2.5162024060035377,35.112167034488664
2024-06-18 04:38:59.233810,-0.0118319754487756,-0.07230784465911774,0.010474781272501578,8.419664405719072,1.6093748304574937,2.3391753366900616,35.40697348768741
2024-06-18 04:38:59.356885,-0.00902321117568218,-0.059813834944674765,0.012102637493478932,9.211557873194142,1.6652445625372156,2.480697391574027,35.69969591291579
2024-06-18 04:38:59.479552,-0.0059893489800037225,-0.04671670451625159,0.011373470258667653,9.864452649393353,1.3192549363760282,2.3776056107658006,35.99756226948547
2024-06-18 04:38:59.602286,-0.004149135506156325,-0.03406150263981127,0.007933510909527089,10.333917893946214,0.7546089598085023,2.402312417387685,36.294867330192936
2024-06-18 04:38:59.724985,-0.0021632626666563052,-0.017162045870056406,0.0027527043988446465,10.549983340753187,0.4792988091452271,2.185736605121628,36.5756816937497
2024-06-18 04:38:59.847641,-0.0007969117809286614,-0.0013844963391157637,-0.0009673016713335394,10.356077920881807,0.6634176379145661,2.072504137373179,36.833934432749224
2024-06-18 04:38:59.970257,0.0007966565297778182,0.011607401949886234,-0.0032394535501707256,10.095433260775515,1.0560899380243642,2.047915701549371,37.08903162214876
2024-06-18 04:39:00.092954,0.002203903264382551,0.024116099591872543,-0.003922399733176388,9.972730325681104,1.195846041679623,1.8422204805170166,37.3233144510494
2024-06-18 04:39:00.215748,0.002942797199462243,0.03477372473971397,-0.0038365757322066803,9.716143398884856,0.9565860689014202,1.5289946258629905,37.52594820675274
2024-06-18 04:39:00.338364,0.004368946269094108,0.04844971539314308,-0.0046825299017695925,9.079115219019418,0.6173016596529589,1.457792973902559,37.70699152758087
2024-06-18 04:39:00.461273,0.006419782685275835,0.06143509383650778,-0.00762214570830438,8.11265543051783,0.746940612919722,0.9690986842164614,37.8496617931299
2024-06-18 04:39:00.583516,0.007998947428336931,0.07316284261598958,-0.011720125430628099,7.033420878347922,1.25251471431842,0.6364897494145606,37.94325223546817
2024-06-18 04:39:00.706079,0.00872742029455191,0.08079175446356156,-0.014630661600807664,6.188601924063772,1.7585528002865765,0.36080811942166413,38.00082646803108
2024-06-18 04:39:00.828523,0.009716127298087816,0.0900904240855063,-0.017153549359516802,5.742336499677161,1.9827096293047561,0.15234448983382465,38.03040420430296
2024-06-18 04:39:00.951062,0.010721603789391531,0.09662879909336076,-0.01769361062787965,5.400637824124305,1.8301989909315564,-0.04926796278315888,38.03410274932656
2024-06-18 04:39:01.073926,0.011522268362114854,0.10093412145878826,-0.01680447859594826,4.933097279323623,1.5990509061177214,-0.2363779270979707,38.01544773654888
2024-06-18 04:39:01.196252,0.0112859134708734,0.10241620991151343,-0.017031762875893586,4.211315563995091,1.4398513480436812,-0.4817723492001025,37.969091361822606
2024-06-18 04:39:01.318919,0.010348804186926693,0.10232569093872476,-0.01792530475226725,3.2292266568018073,1.5703470319530082,-0.6410407784203574,37.89715929926293
2024-06-18 04:39:01.441698,0.008422237938543103,0.10222555145506133,-0.018894830702704382,2.3256496965044966,1.8028103254797805,-0.6974497719786231,37.81473319814013
2024-06-18 04:39:01.564390,0.007406175635782973,0.10017598139305252,-0.01985461484228241,1.7495272810873215,2.011874163904244,-0.760537479599849,37.72525449795936
2024-06-18 04:39:01.687291,0.006421611866107469,0.09710053220592259,-0.019805128876522884,1.4493888247122222,2.1035282072353896,-0.9027590567145624,37.621826065836856
2024-06-18 04:39:01.809905,0.005419605633447768,0.09313452685152528,-0.0187429708131228,1.4535413266582955,1.99794965400307,-0.9214704263062568,37.50847407454659
2024-06-18 04:39:01.932574,0.004465809283475118,0.0902645242577742,-0.016821172920561605,1.6971164961281842,1.7853514696307848,-1.1515261419774256,37.37659795483576
2024-06-18 04:39:02.055224,0.0035375563877035237,0.0847009960551649,-0.014953394086459659,1.9888036638085065,1.7014511630788176,-1.2011755795976855,37.238644735306956
2024-06-18 04:39:02.177840,0.0015966482350628411,0.07953271217772742,-0.013867010842551741,2.111428452796989,1.713003916024577,-1.338513797734096,37.07781347919515
2024-06-18 04:39:02.300536,-0.0004257412368631986,0.07363250886644852,-0.012890462810874102,1.9680235446563936,1.7545070225903607,-1.2781661777581734,36.91581949900448
2024-06-18 04:39:02.423334,-0.0014921375349949498,0.0676076263826062,-0.012819492176432875,1.8032059276968406,1.820426720869945,-1.128753899988538,36.77485684180816
2024-06-18 04:39:02.546189,-0.0023493566362916816,0.06395234703446133,-0.013653420561721238,1.9015968009139563,1.7498266494527512,-0.8906569103904376,36.64841100877858
2024-06-18 04:39:02.668773,-0.0025517262276417954,0.05995320020342986,-0.013062760699742906,2.3412679386725963,1.5495836578499553,-0.9189904362975168,36.54448411882203
2024-06-18 04:39:02.791844,-0.0025178242183450934,0.05675936582315046,-0.011992600008978128,3.046894932799143,1.2573424471412726,-0.9552698986552693,36.42628846035364
2024-06-18 04:39:02.913909,-0.0025198658562605044,0.05379404129607955,-0.0101857918626429,3.6416939647077857,1.0295973890304027,-0.8471724585542003,36.31751209036281
2024-06-18 04:39:03.036477,-0.0025200501999517095,0.05079176695813143,-0.008152190150402333,3.8784502427772294,0.8734076725906277,-0.7791085593801347,36.21891166615716
2024-06-18 04:39:03.159258,-0.0025199946346585313,0.048949198429822045,-0.007138698414013791,3.753743072189329,0.7854605535708569,-0.7762232045689983,36.12373848269408
2024-06-18 04:39:03.281789,-0.001882045646481093,0.04823912818337171,-0.006162830590173363,3.55507721734857,0.7743933618286564,-0.6687489767428869,36.03273193860743
2024-06-18 04:39:03.424760,-0.0008380825738810404,0.04768484330504457,-0.005159529726667832,3.561901682440404,0.7519076338025984,-0.7025718124710981,35.93182962343161
2024-06-18 04:39:03.588007,0.0008511090402317856,0.04795777897590503,-0.004791639673446716,3.9031340316737224,0.7697814668563161,-0.8157270656468256,35.802792162144655
2024-06-18 04:39:03.768109,0.0022365333096591024,0.04903030935660342,-0.004911772481600654,4.441916809962493,0.8194127081266429,-0.7928440801677145,35.65819454393951
2024-06-18 04:39:03.921729,0.0038933049529742327,0.050733600534926045,-0.006161537070874092,5.0275106220425085,0.8482997305407697,-0.7422978723624422,35.54308338078839
2024-06-18 04:39:04.047707,0.006856609870300104,0.05470239779562753,-0.009207521617220571,5.460849395417607,0.8486695162079156,-0.7277316087372241,35.45682808047203
2024-06-18 04:39:04.170200,0.008213763477013334,0.05670502752211215,-0.010576377129434942,5.266164581837109,0.8853433627799903,-0.872812018013012,35.355513668947665
2024-06-18 04:39:04.292805,0.009156876239065212,0.05867678599766027,-0.010878672249420832,4.925981907893033,1.063277994287359,-0.9443299288415652,35.24375316411416
2024-06-18 04:39:04.415544,0.009522098896433805,0.060680835171981716,-0.010792003146134932,4.665123540670358,1.205949662785692,-1.0213363599880592,35.12096324651111
2024-06-18 04:39:04.537990,0.010116435565572469,0.06331860335285167,-0.01013003907135183,4.503084373972825,1.3109901283328484,-0.9608908027747415,35.000568532202735
2024-06-18 04:39:04.660776,0.010523587088956855,0.06571347355221781,-0.008962607200020678,4.586334265213759,1.2889085087193421,-0.9337258636960329,34.88374067697717
2024-06-18 04:39:04.783277,0.010478838100735424,0.06830215217248173,-0.008166844016593237,4.76079709259397,1.2725423426121638,-0.773149394029368,34.78261495770032
2024-06-18 04:39:04.906019,0.010479551306761904,0.07026142862731366,-0.009307224214343398,4.92205820662627,1.3242459841494543,-0.7470352150834495,34.687978205657714
2024-06-18 04:39:05.028634,0.01048008136573728,0.07225899053226068,-0.010733924605109992,4.992682207417222,1.3809530756319426,-1.038982987996082,34.575608471433
2024-06-18 04:39:05.151167,0.010479994576427005,0.07381412475039204,-0.012333204849313738,5.029255481480311,1.4094118402079452,-1.1279804438687553,34.437700089277705
2024-06-18 04:39:05.273778,0.010281296812819913,0.07579375779759984,-0.01411582582248952,4.895844417508375,1.4125922221066478,-1.2926401377881838,34.29045224761906
2024-06-18 04:39:05.396398,0.009442334023873187,0.0778030002041065,-0.014887829937982412,4.553425959808066,1.374387141019323,-1.3049678801038185,34.13167733526945
2024-06-18 04:39:05.519016,0.009474110670681928,0.07960324827844202,-0.014644624456540007,4.189519475924906,1.3332046276005776,-1.3932132111138325,33.96340770630556
2024-06-18 04:39:05.641838,0.009481385174628234,0.08056560318011204,-0.013602472780197461,3.9608694652603473,1.2617604979890011,-1.3998230771829707,33.792346054266865
2024-06-18 04:39:05.764952,0.009479882914689142,0.08136102285038561,-0.012750433289467882,3.9570156334619124,1.1985256769112316,-1.438427591703327,33.61581267354526
2024-06-18 04:39:05.887611,0.009479997339574442,0.08132473991333193,-0.01178643360290312,4.086228018428163,1.173881303673403,-1.385455746158606,33.44399124778841
2024-06-18 04:39:06.010133,0.009480002041856547,0.08127260183315375,-0.010871394334162383,4.135654241061636,1.142227980936846,-1.2677990362963916,33.27969676530374
2024-06-18 04:39:06.133302,0.00947999974220345,0.08031718675237273,-0.011923932184791318,3.9846041593975277,1.1114883411869614,-1.3545812455293742,33.126499991732324
2024-06-18 04:39:06.255829,0.00943386820631354,0.08030692651764228,-0.013906903144464872,3.6832118649939503,1.060673205634047,-1.5640663120233689,32.94289344110886
2024-06-18 04:39:06.378693,0.008477070594891209,0.08032193146979402,-0.014867038740517494,3.451168220768847,1.0511531620334693,-1.6614101176313183,32.74347983300449
2024-06-18 04:39:06.501020,0.008466925404158889,0.08031990553390042,-0.014849292170431787,3.324465301038617,1.0554192893302534,-1.7462644089609969,32.534076937755074
2024-06-18 04:39:06.623510,0.008481933274686802,0.08031998633592241,-0.014838272842646822,3.377475940520028,1.1044179316989584,-1.6474149434214014,32.323121992485234
2024-06-18 04:39:06.746291,0.008479905288499918,0.07938880301583066,-0.013908918115582734,3.5262385287481663,1.1709598690902308,-1.7371246989765867,32.11426108721863
2024-06-18 04:39:06.868875,0.007768130740233085,0.07929722088443175,-0.012886028180186514,3.711010780727728,1.2058499377050695,-1.6933389836470731,31.90478276559706
2024-06-18 04:39:06.991646,0.008330121662936474,0.07851115504763417,-0.01281954080042115,3.8898517595838666,1.2912117479017051,-1.667049275972474,31.69790639249311
2024-06-18 04:39:07.114014,0.008505577320626113,0.07747485518188563,-0.012842308972033069,3.940791130305171,1.3606393387021216,-1.5237563263275196,31.503855429852074
2024-06-18 04:39:07.236592,0.009289587388229256,0.07647708012243147,-0.012839955428882353,3.8287694514143986,1.3679403691707896,-1.5279916303958385,31.31211504189914
2024-06-18 04:39:07.359118,0.009513830483839842,0.07547727187603047,-0.012839973774257597,3.5433840108147674,1.3078897512080345,-1.6152736993769878,31.114901253008952
2024-06-18 04:39:07.481697,0.009477799504745291,0.07366604533478625,-0.012028837115642881,3.288787576652969,1.2221032130552423,-1.656682057741762,30.915472626609272
2024-06-18 04:39:07.603975,0.009479839654241826,0.07197851314218762,-0.01116808148113582,3.2495367100801316,1.168356506461369,-1.6720216607080296,30.7166058199879
2024-06-18 04:39:07.726593,0.008842099921505203,0.07059871121432862,-0.01079827905092321,3.3282329724923088,1.1758053751120627,-1.6715419315990014,30.509554951517742
2024-06-18 04:39:07.849205,0.0077980769137657065,0.06964082170800069,-0.010841394008919304,3.417718838944912,1.213637423601841,-1.6292051229476125,30.30864973303446
2024-06-18 04:39:07.971830,0.006799320343650431,0.06864010324514865,-0.01084038870000347,3.5084759288526484,1.214198958392965,-1.5167858454460126,30.121723311959027
2024-06-18 04:39:08.094066,0.0064377178281422335,0.06701276496629698,-0.011261524276313762,3.4988146871387698,1.1641011293653594,-1.6012362181485895,29.929952796700512
2024-06-18 04:39:08.216649,0.006481599196055981,0.06433501078268201,-0.011887805109683167,3.342747335467771,1.0844817667415316,-1.493433053561989,29.736446795816352
2024-06-18 04:39:08.339381,0.0069019671986374955,0.06279936173684661,-0.01184126904871646,3.0377034581166655,1.0314856822347196,-1.616480155174639,29.54648341207412
2024-06-18 04:39:08.461861,0.007527723891258338,0.06142896641879351,-0.010995939379909832,2.728981883390541,1.0298598516355275,-1.7158322013877458,29.347658542210034
2024-06-18 04:39:08.584351,0.007481274532641103,0.058959737616498115,-0.009322907015141825,2.5018933811255764,1.0428849645117755,-1.934879322556612,29.117183487381
2024-06-18 04:39:08.706968,0.007479140227807338,0.0563799093189874,-0.008392253966931757,2.279373142133335,1.1224855489388166,-1.7514945035484049,28.89104869962234
2024-06-18 04:39:08.828964,0.007480106367878738,0.05257104381941649,-0.00636771235973055,2.2007336316494426,1.2560280062896083,-1.3505706166438238,28.704177259255673
2024-06-18 04:39:08.964763,0.007526134476654196,0.050124440006289926,-0.004763011453442051,2.1725645004567324,1.3408089334620956,-1.321647729607288,28.52519498210138
2024-06-18 04:39:09.099084,0.008061327120184286,0.04559296508054248,-0.004236265782356745,2.1397684671301427,1.4955281342548514,-1.2239678804428678,28.360468013339315
2024-06-18 04:39:09.238858,0.007465113009635387,0.04099987560108122,-0.005281097855465305,2.067017081733622,1.6760542628123962,-1.1843805283991868,28.19112252907374
2024-06-18 04:39:09.407466,0.007043083042596513,0.03639996133429942,-0.006314791032031428,2.0054425161348517,1.8721358445753704,-1.0367107591381068,28.01834085921483
2024-06-18 04:39:09.528339,0.005806258794212838,0.03156254048764151,-0.00688870901579094,2.042720756054262,2.1934540418821262,-1.0556893448222098,27.88835271116677
2024-06-18 04:39:09.664905,0.004296050656119742,0.02753661616031283,-0.006212543572783882,2.1590581590991644,2.439515620600242,-1.0266041301714908,27.74095184713473
2024-06-18 04:39:09.805647,0.0024962171920018413,0.022421730884553553,-0.003931776006002115,2.3774648218060106,2.559732897021529,-0.8560857598714168,27.61199244020791
2024-06-18 04:39:09.944099,0.0007667029677049119,0.01880124681970546,-0.002102401166646482,2.6087142110678485,2.5291225003402826,-0.9204047553796391,27.49460258423179
2024-06-18 04:39:10.078796,-0.0006276098367673502,0.015222078115334298,-0.0007786499839056917,2.9768635460683175,2.381402917219699,-1.1797859733195692,27.345054104853396
2024-06-18 04:39:10.240283,-0.0029431971377787813,0.012050396403639512,-1.623334861929043e-05,3.565795585923296,2.1536167217505877,-1.3622206882225605,27.144501087381858
2024-06-18 04:39:10.378640,-0.005461580579749255,0.011251524689489091,-0.001289234450356121,4.247312837952522,1.8635296155990944,-1.6939915513736135,26.932626884495786
2024-06-18 04:39:10.541380,-0.007162827657171441,0.011304815456105486,-0.0018681587695150146,4.625673829801491,1.717097436435336,-1.720822798145318,26.650239536892364
2024-06-18 04:39:10.696698,-0.010845014052836797,0.01132320978116706,-0.002498806911754316,5.2298065697331495,1.4540249932611364,-1.818821692839695,26.373338905291327
2024-06-18 04:39:10.871728,-0.012331219409889939,0.013192506777462396,-0.0026767457413634506,5.735556169240267,1.1451133750349596,-1.8389256596254522,26.05927737332611
2024-06-18 04:39:11.054841,-0.01216717141559715,0.018110645327245142,-0.001849393728679765,6.203939969601309,0.7935673178537201,-1.791552790436073,25.72316202017862
2024-06-18 04:39:11.207208,-0.010657318326894594,0.024608802462008073,-0.002636271433293387,6.583515231598532,0.38031384311843297,-2.0769356464583195,25.431416593522254
2024-06-18 04:39:11.361445,-0.008754510239882288,0.029840133189800336,-0.0037435972930878617,6.6140798395665,0.15194582064762324,-2.238972651225032,25.091179163270017
2024-06-18 04:39:11.490681,-0.006051596536523541,0.036486525488623675,-0.005273076509970958,6.409029670228061,-0.048952246272858976,-2.262976271446766,24.798459855627858
2024-06-18 04:39:11.613253,-0.004025913930199679,0.04175306086280662,-0.007124389171013118,6.073149265079271,-0.12960785026095,-2.3020337792027488,24.518303748121113
2024-06-18 04:39:11.736163,-0.00229858742692392,0.046749923696095236,-0.007933573565609217,5.796291150704262,-0.15996625082587465,-2.3866673885196312,24.23037206762174
2024-06-18 04:39:11.858529,0.000590350336249787,0.050591497234389556,-0.008892323470911845,5.606408086824699,-0.19075173937458403,-2.5281258975384344,23.92853250900879
2024-06-18 04:39:11.981394,0.002614825963950167,0.055563786366392746,-0.009854860610133376,5.440638869567105,-0.1907102513349061,-2.6905809861332814,23.60670966993056
2024-06-18 04:39:12.104135,0.004644836666887642,0.05952845297913636,-0.009851260597963016,5.224278177641622,-0.14122932828967555,-2.8481120568194487,23.264907689732766
2024-06-18 04:39:12.226501,0.007603620542240273,0.062464070156176776,-0.009838160358588288,5.002090887767961,-0.054044326976504145,-3.013603347240177,22.904628175359342
2024-06-18 04:39:12.349117,0.009521442858223048,0.06435786668810602,-0.009840106833702818,4.755933331495717,0.04796967483777413,-3.210938221136728,22.520817702454483
2024-06-18 04:39:12.471482,0.010431756938635175,0.06620318529987439,-0.010771210873165609,4.462021306166108,0.1787373210812429,-3.394718606581155,22.114763461021376
2024-06-18 04:39:12.594226,0.012361618526543683,0.06729321466584122,-0.01086277578743812,4.172364371044686,0.3032171044459626,-3.5551247135274133,21.686043038742184
2024-06-18 04:39:12.717038,0.013454659932955672,0.06733835266733001,-0.010837677927568231,3.91955277814607,0.4407458648802122,-3.6899517855210413,21.238353870202832
2024-06-18 04:39:12.839527,0.013498165717240608,0.06638652322206383,-0.010840013683966084,3.7417039968222756,0.5489256254301625,-3.795113290770159,20.783439077066603
2024-06-18 04:39:12.962021,0.014288897428200976,0.06629729085040019,-0.010028863570512582,3.5772660945615002,0.6861434729241015,-3.7896176467135003,20.316460140323127
2024-06-18 04:39:13.084633,0.014514035200878395,0.06551117718597485,-0.008994864198140782,3.508008639090513,0.8394960387348085,-3.8873633881932137,19.840683801821736
2024-06-18 04:39:13.207250,0.01447777964717481,0.06447485098848477,-0.007997111245183236,3.4799619346090678,0.9484497965314174,-4.024409246332326,19.35056240058723
2024-06-18 04:39:13.329991,0.013668672320698707,0.0626659131060957,-0.007808434554963288,3.5057712827608523,1.041361345727953,-4.121237579262314,18.856822620683083
2024-06-18 04:39:13.452491,0.013446090795214744,0.0614433080627144,-0.0070311767044249265,3.5611697712220542,1.0879234273676635,-4.265046382955654,18.339237746327242
2024-06-18 04:39:13.575104,0.012844282093630586,0.06001471325653609,-0.007444098115423014,3.571916672196788,1.1294656827885212,-4.212962525256392,17.818166323431956
2024-06-18 04:39:13.697762,0.011798238755680517,0.057958670863117984,-0.007886156491439054,3.628854684991138,1.1524667526348946,-4.319824490137364,17.292436299743777
2024-06-18 04:39:13.820380,0.010799266045496478,0.05595869375972451,-0.008476878358818982,3.689525060285172,1.1530161912706467,-4.375307156136997,16.758807745440304
2024-06-18 04:39:13.943117,0.009799768975046075,0.05459743793824991,-0.008883465599088224,3.6935234822606633,1.095807977659301,-4.3209961901801455,16.230492528663827
2024-06-18 04:39:14.065736,0.009016035839956818,0.05343604034103809,-0.008838849413534097,3.725933099282355,1.0407913066256844,-4.383709247699222,15.694515120600343
2024-06-18 04:39:14.188299,0.008012204811044678,0.05180477203405269,-0.008839551389101303,3.715128054053428,1.103780772167871,-4.327384851304681,15.159570606199877
2024-06-18 04:39:14.310915,0.007009698684400932,0.05084835412708593,-0.00841848094770959,3.5763973806697287,1.659912912322912,-4.199024034323259,14.638790182421271
2024-06-18 04:39:14.433860,0.006010115520701188,0.0502725815514469,-0.007370594736222803,3.6973538283705034,1.4919083150706272,-2.948271630345613,14.174312771123533
2024-06-18 04:39:14.556473,0.005431690917796774,0.049897784042760636,-0.0067909312461492686,3.8781754532082187,1.4407740645990925,-4.080021324651699,13.73559908795852
2024-06-18 04:39:14.678966,0.005280785411918604,0.04927296050415896,-0.006640888550577376,4.040748227654502,1.3945671873810472,-2.9626933065478793,13.296726990788015
2024-06-18 04:39:14.801876,0.004443091579688653,0.0491199271389699,-0.005803087406441566,4.149535426554539,1.3963385472576906,-4.130599181803724,12.837699644685962
2024-06-18 04:39:14.924618,0.00467271111414601,0.04828319780063148,-0.005834007437934895,4.243592241757233,1.3803253454989783,-3.251502440624381,12.411739031265386
2024-06-18 04:39:15.047110,0.005519055373547492,0.04831400506973602,-0.0060400922709962805,4.283154356145042,1.3590194248028558,-2.270046611881556,12.017373171893144
2024-06-18 04:39:15.169977,0.005485773086949121,0.04852009105144221,-0.007076252683314986,4.319650454825143,1.3351523518260764,-3.9793797118221628,11.637826548704282
2024-06-18 04:39:15.292593,0.005524743785312701,0.049357550072781246,-0.00788355257886272,4.364533108280874,1.3354028878516648,-4.226795995354602,11.119924445030078
2024-06-18 04:39:15.415205,0.006483048549074155,0.04937201826190043,-0.007844506197551936,4.380451356277114,1.3489019911243765,-3.3941031705987137,10.626276601256352
2024-06-18 04:39:15.537820,0.006539208800585665,0.05036767809038939,-0.007838731653675882,4.057904908722717,1.4897288767946364,-4.0621299341235355,10.197412924476811
2024-06-18 04:39:15.660561,0.00748099409916325,0.05138225263352011,-0.007840119754013867,3.5309423615943842,1.7190015344502654,-4.231637756586523,9.677350656128796
2024-06-18 04:39:15.783426,0.007493169567133381,0.05238020519884729,-0.007840000621007454,3.5693958890962185,1.7021498768224406,-4.154659034628399,9.163650409044422
2024-06-18 04:39:15.905292,0.007478080370578887,0.05333416340036954,-0.007839998215469202,3.571289080871452,1.701343712547157,-4.198393049088047,8.654035991489243
2024-06-18 04:39:16.027782,0.007480091393141514,0.05519365053985691,-0.006908799951321598,3.5704709798040657,1.7016988326115197,-4.259920192418645,8.13492728797962
2024-06-18 04:39:16.150399,0.007480013941160728,0.0562949297235755,-0.006817221159736971,3.5705625632835125,1.701658857016441,-4.330395085835168,7.6074768242098045
2024-06-18 04:39:16.272889,0.008411196987563367,0.05633823943734682,-0.007773522659076753,3.570560888857894,1.7016596158517503,-4.153677001221889,7.076694220756718
2024-06-18 04:39:16.395889,0.00850277911115613,0.05724891593172489,-0.007862765146908205,3.5705598351135444,1.701660071758764,-2.593262328309326,6.6902694471143676
2024-06-18 04:39:16.518371,0.008477677643145254,0.057342851252738955,-0.007837646752443249,3.5705600112796527,1.7016599950531086,-4.15399672115276,6.316887329733022
2024-06-18 04:39:16.641112,0.008480013678086581,0.058128866794357775,-0.00865118565521802,3.570560000701257,1.7016599997003103,-4.046343254465091,5.853351848861679
2024-06-18 04:39:16.763727,0.00848003088520029,0.05835397332705726,-0.008873994477201639,3.5705599997389124,1.70166000011337,-4.480241068853484,5.293812978257874
2024-06-18 04:39:16.886718,0.007668828027713235,0.05767983461401468,-0.008837753158298186,3.570560000027856,1.7016599999878388,-4.328786726379759,4.823645886658107
2024-06-18 04:39:17.009332,0.008257203717185599,0.057275876074914946,-0.00883984403959138,3.5705599999996664,1.7016600000001572,-4.797741673603412,4.243168781333884
2024-06-18 04:39:17.131949,0.008299851836003418,0.05732129235817091,-0.008840054362290272,3.570559999999656,1.7016600000001512,-4.683768219369383,3.6645905877470817
2024-06-18 04:39:17.254952,0.008481750595199749,0.05668248299403832,-0.008839994341124851,3.570560000000057,1.7016599999999777,-3.4715308045021858,3.1860069044494517
2024-06-18 04:39:17.377483,0.008482296027441784,0.05627595534717081,-0.008840000049509732,3.5705599999999986,1.701660000000003,-4.4442887106782205,2.7403589918829807
2024-06-18 04:39:17.500098,0.008479643004679748,0.05568328899047629,-0.008202045653456332,3.5705600000000017,1.7016600000000022,-4.214934321168649,2.256722409246986
2024-06-18 04:39:17.622713,0.008480019163450583,0.05485488005515813,-0.007796036915703072,3.570560000000002,1.7016600000000013,-3.646260460331228,1.7182230249010189
2024-06-18 04:39:17.745703,0.008480002279101244,0.05385175618225485,-0.007841237796363544,3.570560000000002,1.7016600000000013,-4.88098778184135,1.1856123551932025
2024-06-18 04:39:17.868318,0.008058399153017549,0.053271380200307264,-0.00784044303217616,3.570560000000002,1.7016600000000013,-4.292034321506556,0.6849232787380629
2024-06-18 04:39:17.990809,0.0074322004367991315,0.05289790972798977,-0.007418318133321664,3.570560000000002,1.7016600000000013,-4.016205887247519,0.18459525007603375
2024-06-18 04:39:18.113176,0.0074787312323117555,0.05227295931888599,-0.006792205922664501,3.570560000000002,1.7016600000000013,-5.087882644685485,-0.4045803780060151
2024-06-18 04:39:18.235740,0.007480860008892285,0.05211992553186424,-0.006838731585070251,3.570560000000002,1.7016600000000013,-5.056494925430311,-1.0270747139061516
2024-06-18 04:39:18.358561,0.0074798935162907615,0.05128319804994369,-0.006840859880217069,3.570560000000002,1.7016600000000013,-5.048964494244805,-1.6472036242011
2024-06-18 04:39:18.481233,0.007480003237354656,0.05111530223589422,-0.0068398935299163474,3.570560000000002,1.7016600000000013,-3.7298724069156095,-2.187205969384177
2024-06-18 04:39:18.603849,0.007480001038454889,0.0502837221234003,-0.0068400032372030305,3.570560000000002,1.7016600000000013,-3.7413678176146448,-2.7043954619869823
2024-06-18 04:39:18.726590,0.0074799998039287805,0.05051269747205438,-0.006840001038283007,3.570560000000002,1.7016600000000013,-5.153782926105233,-3.2642072759754446
2024-06-18 04:39:18.848830,0.007433868211581656,0.05135904842447482,-0.006839999803954796,3.570560000000002,1.7016600000000013,-5.301873746491552,-3.9109719963504723
2024-06-18 04:39:18.971614,0.006477070593255446,0.0513257742854937,-0.006886131815765951,3.570560000000002,1.7016600000000013,-5.343389509499342,-4.563871011878897
2024-06-18 04:39:19.094227,0.006466925404321025,0.05136474371022846,-0.007842929408335567,3.570560000000002,1.7016600000000013,-4.007083703024829,-5.1388885348029
2024-06-18 04:39:19.216665,0.006435801472593179,0.05232304854297748,-0.007853074595060863,3.570560000000002,1.7016600000000013,-5.445963651547217,-5.7486866165765065
2024-06-18 04:39:19.339238,0.0054769758809570905,0.052333077000437045,-0.007838066725379532,3.570560000000002,1.7016600000000013,-4.497187320094642,-6.397128217771357
2024-06-18 04:39:19.461897,0.00453571145241807,0.05324926498952846,-0.007840094711500626,3.570560000000002,1.7016600000000013,-5.298089324301648,-6.959656647143896
2024-06-18 04:39:19.584636,0.004459157761189769,0.053342873801189246,-0.007840013654109145,3.570560000000002,1.7016600000000013,-5.587424776164032,-7.64371479289572
2024-06-18 04:39:19.707499,0.004482227364858835,0.054248891580397134,-0.007839996684037167,3.570560000000002,1.7016600000000013,-5.534683921845558,-8.32521738202104
2024-06-18 04:39:19.830242,0.004479972657477061,0.05434278919401835,-0.007840000286576821,3.570560000000002,1.7016600000000013,-5.499305535174717,-9.003281515247716
2024-06-18 04:39:19.952732,0.004479972436225364,0.05338650851059327,-0.007840000005458156,3.570560000000002,1.7016600000000013,-5.474773598694775,-9.674267019912811
2024-06-18 04:39:20.075472,0.005291171685064798,0.05329723019649754,-0.007839999995153855,3.570560000000002,1.7016600000000013,-4.438017121922216,-10.317324465117746
2024-06-18 04:39:20.197838,0.005513963587182467,0.05332235348024764,-0.00784000000062302,3.570560000000002,1.7016600000000013,-5.0761150381982985,-10.861573704320966
2024-06-18 04:39:20.320659,0.005477757825605337,0.05331998168681989,-0.007839999999977483,3.570560000000002,1.7016600000000013,-5.186772744544745,-11.506764772785198
2024-06-18 04:39:20.443444,0.005479843801393077,0.052508802035224414,-0.007839999999993493,3.554149217116102,1.7016600000000013,-3.8829564656729962,-12.091416977166102
2024-06-18 04:39:20.566185,0.005480054330708795,0.05228604086456069,-0.00784000000000031,3.4966422898586136,1.7343004889164935,-4.397113137640782,-12.561139986217517
2024-06-18 04:39:20.688809,0.006117948768525637,0.05168428748268524,-0.007839999999999098,3.40664902936834,1.7746073044900386,-4.461327557937914,-13.116706216327305
2024-06-18 04:39:20.811417,0.006523963121853432,0.051276193101957315,-0.007839999999999176,3.2699519981410083,1.8218687590172689,-2.8168937484751986,-13.560555228644855
2024-06-18 04:39:20.933906,0.006964145678179757,0.050683229052868393,-0.007839999999999183,3.0596547506146554,1.8861182402038699,-2.8523223987447883,-13.961723329569624
2024-06-18 04:39:21.056523,0.007488783331309288,0.049000576770356664,-0.00720204558053986,2.768406847893992,1.9441256159025666,-4.3628253657372165,-14.42414817324555
2024-06-18 04:39:21.179154,0.0074860291051084705,0.04739002948819052,-0.007217637172976275,2.4254421062119498,1.9376111825402322,-4.2037755723033925,-14.955847139249908
2024-06-18 04:39:21.301878,0.007900603573268326,0.04538412436346026,-0.00746743716764972,2.028665841630258,1.84100330417968,-3.6868922585256034,-15.437953534837455
2024-06-18 04:39:21.424380,0.008949458757212867,0.04275916447721864,-0.006372311936454347,1.6139338438013868,1.8723144091756656,-1.8941389512410827,-15.809453610658512
2024-06-18 04:39:21.547035,0.010793874706926847,0.03887315895440387,-0.005099360509802479,1.1961413117709485,1.8081323901512194,-1.0827978970438186,-15.947344963940797
2024-06-18 04:39:21.669651,0.013045406217062721,0.035482023041648644,-0.00335724048242792,0.7565154173380312,1.6586150473746588,1.1995081018823377,-15.9378302221929
2024-06-18 04:39:21.792516,0.014325663837321565,0.03233394322935705,-0.002584525387299789,0.4290292244998605,1.486373522408075,5.2940628844414706,-15.54361455059764
2024-06-18 04:39:21.915382,0.018821673332576037,0.028371601019545195,-0.0016045260104814347,0.042644612764953085,1.365388046263773,10.93407010855022,-14.505294170890217
2024-06-18 04:39:22.037834,0.025716037267221666,0.024155393562153935,-0.0005984156595440722,-0.8398324219987656,1.3696655399692206,21.679208449804452,-12.451383686990294
2024-06-18 04:39:22.160738,0.03607228321098437,0.019318430192111685,0.0005996860624451283,-2.69681268811656,1.75133998956798,39.83956697089539,-8.612979530925507
2024-06-18 04:39:22.283304,0.0481246165752746,0.014952759678056912,0.0026373526745841285,-4.995400083686456,3.0774974821357426,56.920972775697564,-2.4566301010042286
2024-06-18 04:39:22.406169,0.06196467355037635,0.009384919575132844,0.004522635594921463,-6.3315321677829175,3.882854954037128,64.58180107219758,5.187947074627049
2024-06-18 04:39:22.528785,0.07939714090780992,-0.005630829189829469,0.010463493426420455,-5.343238423096308,3.6679276219714767,58.740315286814905,12.873300868977662
2024-06-18 04:39:22.651526,0.0964362601928685,-0.024754313516457658,0.016299620500466915,-3.3065197318659343,4.04930877791118,42.798170856045864,18.939851860264366
2024-06-18 04:39:22.774267,0.11126687564260569,-0.04255256489557967,0.017183883228993953,-1.5456428018366362,5.35237758612495,31.688503403259784,23.333084861928853
2024-06-18 04:39:22.896881,0.12268013358295647,-0.05491812251055025,0.016159115293224027,-0.538670040852132,6.617174681538114,25.09300980554611,26.71838767736489
2024-06-18 04:39:23.019499,0.1281969237520491,-0.06412916683730857,0.0161456387451308,0.13218730678389054,7.820422669340725,20.95701557337632,29.479722253938494
2024-06-18 04:39:23.142195,0.12766387049835043,-0.0732653744051191,0.016162090511832393,0.9084074467715234,8.913387584572911,17.84347161553232,31.823449835946114
2024-06-18 04:39:23.264853,0.12278857548240132,-0.0794504058849933,0.017091101043162013,1.7150969347939504,9.841100351743295,15.27398715791059,33.82379671267852
2024-06-18 04:39:23.387595,0.11212542608032444,-0.08445203336024577,0.017182763607616957,2.5045045737357308,10.579922273466288,13.070940163744087,35.53810741940252
2024-06-18 04:39:23.510210,0.100066777258195,-0.08664275464271783,0.01715768124415724,3.185933840604096,11.102481500360328,12.517370939041848,37.08204358112527
2024-06-18 04:39:23.633074,0.0870645665670919,-0.08752543032924019,0.01716001337643657,3.7521731169631916,11.407595599529168,9.930082027910185,38.40116662712039
2024-06-18 04:39:23.755316,0.07020826779108531,-0.08689836592568206,0.016348863568078274,4.1880268579385955,11.462301729499783,8.883527840833523,39.60969391942141
2024-06-18 04:39:23.877951,0.05314592212377358,-0.08421044830877304,0.015314864202846867,4.538387558064986,11.2795621531711,7.7753474042599064,40.585229401970714
2024-06-18 04:39:24.000551,0.03615290963059796,-0.08033556530694771,0.014317111244538666,4.740290815150073,10.956037079607302,8.352658675158768,41.68033616303472
2024-06-18 04:39:24.123289,0.01996394815934238,-0.07630640440802554,0.012506099935369813,4.773777950330239,10.480563339124636,8.436428237584803,42.61329259821636
2024-06-18 04:39:24.245910,0.006769237986828574,-0.07172579598039022,0.010818507514936442,4.7167672763378325,9.85296952969525,6.203681593883447,43.49943152610741
2024-06-18 04:39:24.368573,-0.008117069773613404,-0.06623588561196639,0.008800756836432912,4.519757031408802,9.076936753314731,5.6213769006875856,44.28063679473408
2024-06-18 04:39:24.491312,-0.02140741585214647,-0.06127826377470961,0.006798904289116217,4.090521798671622,8.21886386501885,5.416818972382318,45.005140826932305
2024-06-18 04:39:24.614182,-0.03308537605450412,-0.05691701917742512,0.004799423537173,3.5849322571314888,7.343720372381148,4.266196689808424,45.566228239949986
2024-06-18 04:39:24.736168,-0.04272410718635585,-0.054236175486051134,0.004075283459775613,1.719220043740978,5.114961594864921,4.163521102937302,46.07740322602615
2024-06-18 04:39:24.859161,-0.04884855008877724,-0.05317726463806666,0.01133041351812314,-2.4042872923483634,3.036559184632384,4.027777817344867,46.58176930222505
2024-06-18 04:39:24.981401,-0.05326116288956293,-0.05474407080336295,0.032091733884426175,-3.1349107038870927,3.4840175818544212,4.247068802924534,47.07963083190486
2024-06-18 04:39:25.104141,-0.05188711547931762,-0.06297752058993104,0.043377406477588275,-3.1685643819334213,1.8162252769005107,4.749106047489377,47.64120936792113
2024-06-18 04:39:25.226631,-0.048059920140339885,-0.07574146258418696,0.03151724081222668,-3.444358385762965,0.40938653134318204,4.041018389959596,48.19040041906152
2024-06-18 04:39:25.349209,-0.045576547911122416,-0.08609406512106567,0.023210106101202846,-2.834257551750153,0.7882372954549104,5.480263059221279,48.826583612538265
2024-06-18 04:39:25.471951,-0.040779428639407506,-0.09959846911178567,0.02590923356875747,-4.067239161758267,0.5751871923366498,4.487088789787903,49.347178837095086
2024-06-18 04:39:25.594853,-0.03280633875213024,-0.11158895986267499,0.01993195395738049,-3.854916633471198,-0.710599519928804,2.7671750347101205,49.77061590361313
2024-06-18 04:39:25.717722,-0.02602224021951792,-0.12416515500376499,0.020310340726251493,-2.7929416751184997,-1.6438271230144865,2.7052913229963447,50.09783946189884
2024-06-18 04:39:25.840336,-0.01927637697248497,-0.13908246641365443,0.02180399943341728,-1.6370273533173978,-1.6710750441194686,2.2516394998427476,50.40573587188708
2024-06-18 04:39:25.963161,-0.010563172630329763,-0.15074179220238562,0.024370356143570613,-0.9646226525762633,-2.2525154128147262,1.9200995547643238,50.641712709504574
2024-06-18 04:39:26.085533,0.001212413476588198,-0.16018756384213537,0.026135980136247686,-0.35227387359565376,-2.9836847064712053,1.9564812122940407,50.951651080114786
2024-06-18 04:39:26.208555,0.015310606122081818,-0.16914240792143886,0.025225328688992965,0.3590528562935345,-3.2714006971201375,2.715672622345812,51.21587746723387
2024-06-18 04:39:26.331122,0.029420140130283046,-0.17603116104460903,0.026595709980622557,1.073794754191805,-4.018126428062756,1.184601943853166,51.4235596637212
2024-06-18 04:39:26.453737,0.04468400162995555,-0.18076972642844114,0.025205959079166177,1.8291868085651097,-4.360731428239924,0.998646453296635,51.547553900904035
2024-06-18 04:39:26.576477,0.05956280331246116,-0.1853888056464884,0.026064233134050842,2.8288216693138093,-3.82861469722709,2.060040554595044,51.70399969944774
2024-06-18 04:39:26.699174,0.07571421348713925,-0.18764738453700955,0.026186030444860155,4.559490138431815,-3.7797384334408233,1.2828386145630886,51.946669415450565
2024-06-18 04:39:26.822084,0.09263937199290843,-0.18771448785361208,0.023363987872574335,5.727859320565593,-3.6034025149227276,1.3784142160626054,52.0831201838824
2024-06-18 04:39:26.944699,0.10872968208824363,-0.18301946986359463,0.021229243442939937,6.715059102626704,-3.18849774102506,2.811035850580496,52.458214038424245
2024-06-18 04:39:27.067313,0.12470484993051624,-0.17791027158416878,0.0024974404075750597,9.294189432211855,-2.111801611509029,2.9453709735521327,52.827516784547285
2024-06-18 04:39:27.189931,0.13878663718598894,-0.1694660844595829,-0.010647320318239728,10.747091897865708,-0.41046721755411114,0.5158115289036032,52.97626414184459
2024-06-18 04:39:27.312670,0.1509097770790361,-0.1543732200027289,-0.0011016565256659005,11.443334324779034,0.8596303012662075,0.3459183050842042,53.024143619534065
2024-06-18 04:39:27.435490,0.15849653699507377,-0.13655776639210268,0.005945195359505701,11.951424034895057,2.194034483296508,0.8460364964426217,53.16973318780362
2024-06-18 04:39:27.558652,0.1629356771129824,-0.11688261019754964,0.007886135520207106,11.961552151402785,2.8104982040369784,-0.1824744072188351,53.17717701957149
2024-06-18 04:39:27.681143,0.16359924094742165,-0.09681971395014316,0.00740478071168214,8.409132945844057,1.4539231687558059,-0.41700098205529645,53.144851789938414
2024-06-18 04:39:27.803836,0.16410840380115552,-0.08156438436781382,0.01860499589407822,5.322190929845149,5.971240036758999,0.21587702902676129,53.156564167878116
2024-06-18 04:39:27.926374,0.16133388548298166,-0.06919415382474553,0.045092028894516537,7.277802131380363,5.309492673357954,1.0634434719605874,53.19572560395899
2024-06-18 04:39:28.048917,0.15670730851779466,-0.06184306946381643,0.04561162887022718,7.9797541220107995,4.384129910178412,0.4898844129805517,53.27872470080758
2024-06-18 04:39:28.171484,0.15212009992849157,-0.05428676232757264,0.032263819750550135,7.558607711594078,4.358713550456381,-0.49785002007917395,53.2766019726627
2024-06-18 04:39:28.294219,0.14962947877097887,-0.04432209039361788,0.02790365875669414,8.049051331557473,4.272093704938416,-0.473529516458306,53.193318006835284
2024-06-18 04:39:28.416847,0.14902198436493774,-0.03599277022967068,0.021988690689572335,7.763489392847202,3.1956162468980036,-0.06408538969288279,53.17550226875865
2024-06-18 04:39:28.539413,0.14843535416505443,-0.025581044760890435,-0.0026935080774211587,9.30120761235697,3.876471792031478,0.9005614206741472,53.19525764084035
2024-06-18 04:39:28.661944,0.14778816074827156,-0.012821773062382403,-0.023176644782721096,9.376500876892575,4.622215312141943,0.6602420732553261,53.31374624859881
2024-06-18 04:39:28.784763,0.145155143568633,0.0023672062729264004,-0.011826493001569668,9.04014028451152,5.251223154045346,0.6974937665970504,53.46078643275464
2024-06-18 04:39:28.907299,0.14213456178117836,0.01382940702478364,-0.008107840769751021,8.675007344226051,6.062187720053294,1.6385773770171894,53.5825967430336
2024-06-18 04:39:29.029914,0.13586154843306952,0.0274377295334501,-0.0067708420090867305,8.007041469026047,6.9626274699226816,1.7053986853858953,53.72959610964412
2024-06-18 04:39:29.152530,0.1285937692117535,0.04006649325559247,-0.007030768008925407,7.353988158403946,7.7133889266390465,0.2927216395676775,53.83806440425016
2024-06-18 04:39:29.275022,0.11995970180971581,0.05078006311756275,-0.006488873159249969,4.352797202979619,7.106102914495697,0.07723199423609833,53.85401444992343
2024-06-18 04:39:29.397764,0.10864313124725797,0.059341121807856806,0.006372567591300527,-2.5566035795077866,6.395203559071936,-0.3716479577349607,53.8252903934161
2024-06-18 04:39:29.520269,0.09874281377576981,0.06110914670323499,0.03533639870058776,0.40146801433805096,6.730789895794295,0.5423201230682102,53.84549783408667
2024-06-18 04:39:29.642869,0.09399378824368404,0.052794227788375954,0.02960648325103312,1.0374217919912678,6.224916953149806,-0.14402240242347222,53.88377671458254
2024-06-18 04:39:29.765232,0.08517292900654351,0.042041805794600644,0.01401316734095252,1.2270811424260737,6.2342766124077045,-0.5730203368371573,53.81745000613452
2024-06-18 04:39:29.887859,0.08012526925888538,0.03895255704108846,0.01382426280617948,1.6278764183523793,5.607486782554992,0.3359154448516818,53.80812877271965
2024-06-18 04:39:30.010713,0.07514010363306779,0.03414823235828912,0.011089580281401827,1.1043785604001886,5.447997292040329,0.9912654754171367,53.902489124299905
2024-06-18 04:39:30.133455,0.06940581802515254,0.03125048389949787,0.00911327774712448,1.0947549706724957,4.28193229862896,3.085739715246711,54.23110638908762
2024-06-18 04:39:30.255945,0.06754823535542091,0.028496434559062343,-0.010415751862403514,3.2440801540633846,4.89183600622178,0.49314305640852213,54.383347551241314
2024-06-18 04:39:30.378646,0.06558312809968496,0.02360098146348251,-0.03186992766590424,4.473716644500445,5.543752501626063,0.790710796125214,54.46053844535143
2024-06-18 04:39:30.501103,0.0607824630345545,0.024143927583619714,-0.018370616100808118,4.877441139484466,5.767330960643657,1.1942496255593695,54.57569762002347
2024-06-18 04:39:30.623722,0.054783454616323175,0.028079125525184212,-0.010839872072959993,4.944641362184491,5.888891310881845,1.2614006782831981,54.801586149755096
2024-06-18 04:39:30.746294,0.04948786432069823,0.030842142362499242,-0.009119080283060287,4.886369662854103,6.094266629935061,0.7474470379743438,54.901834450202244
2024-06-18 04:39:30.868952,0.042611857440741335,0.03546831095611299,-0.008786338854131851,4.634526835969869,5.836179922000421,2.3424888160963206,55.05703282544914
2024-06-18 04:39:30.991818,0.037199641843136406,0.039727870169502744,-0.013710818976598638,2.0462408367124336,1.5295902434393465,2.2903907859094543,55.3386164029104
2024-06-18 04:39:31.114433,0.03308198137131382,0.04287779549897505,-0.0012541460628409298,-5.796267791324706,2.941824808964151,1.1865244874748944,55.549055255529126
2024-06-18 04:39:31.237424,0.03397848422605181,0.037734115147696985,0.0416869528610541,-2.7392419571710347,4.136824517452623,1.9611762643669934,55.721501374885705
2024-06-18 04:39:31.359989,0.03519528371701046,0.023954023676040794,0.04026989580586382,-0.4555164596980916,2.223026127267612,2.5367685194606997,56.02884684270004
2024-06-18 04:39:31.482604,0.033606007798478256,0.009482618746094743,0.022326698382373993,1.1136690972028884,3.9509186873230893,2.732043630055598,56.309451213357676
2024-06-18 04:39:31.604969,0.035536142864721405,0.0033093409017838347,0.01756025706578426,2.7737172339128455,3.3510982101054316,1.7789114302725975,56.608889229801036
2024-06-18 04:39:31.727586,0.03770321629577405,0.0008898754887044373,0.014998043151484971,3.070472986482115,3.183796033837489,1.97272687820884,56.8276711339159
2024-06-18 04:39:31.850527,0.03747520995162255,0.00024038753816497922,0.0084789661251552,3.714179200616478,3.0682314529540284,3.6209908340357533,57.1756802578171
2024-06-18 04:39:31.972820,0.039163935278718344,-9.814524695889233e-05,-0.010163401190723247,6.269040247140455,4.053608510828999,2.352040027019804,57.51840305575761
2024-06-18 04:39:32.095691,0.04082842253850553,0.0018024285583798528,-0.029007815810132842,7.122230763511089,4.7930549286151,2.23438499975386,57.79374047110291
2024-06-18 04:39:32.218261,0.038124648560874656,0.009821391826723588,-0.017408520468459608,7.466585149377618,5.159998576317707,3.069826082706255,58.19253070562255
2024-06-18 04:39:32.340630,0.034644220418532455,0.0200224825854334,-0.011772910046796856,7.5773569031135715,5.596648463731689,2.2116428699668798,58.48800835846435
2024-06-18 04:39:32.463456,0.031492330585578314,0.02799114868131134,-0.009454683079071933,7.530408889868231,5.674663887162107,1.7955948941939086,58.73505418208951
2024-06-18 04:39:32.586075,0.027929208905256093,0.04011700463056537,-0.009000685548382285,7.782580400329223,5.572987133289754,1.7418656825793828,58.93754342811334
2024-06-18 04:39:32.708809,0.026384233433898893,0.05858771752607464,-0.010271874072948621,8.69239636994664,5.388357225156227,3.7102012207187487,59.3186743445318
2024-06-18 04:39:32.831548,0.025281131782397985,0.08084887869059955,-0.012915736308809031,9.950290493994995,5.150434698621661,3.98925156481678,59.839033046170876
2024-06-18 04:39:32.953873,0.020256320989285908,0.10127093000983418,-0.018032138547846688,11.820975907029478,4.025698497326415,3.794819600037954,60.2929994016588
2024-06-18 04:39:33.076491,0.02030602747658924,0.12776323602049094,-0.022285783097411596,11.935128306729688,3.043733844468002,3.9897953060942615,60.77852247386478
2024-06-18 04:39:33.199026,0.01738726132637067,0.15187944040860182,-0.027015801355079718,7.955688132086893,3.0067076921365783,3.569675176846838,61.23646568623121
2024-06-18 04:39:33.321712,0.015434217994760621,0.15882416884063488,-0.030092351039540506,2.9748762678160956,3.5028574359700717,3.694134086468812,61.67650441488137
2024-06-18 04:39:33.444636,0.015505765993280286,0.16214595050583305,-0.033928001758418785,-1.3384953580064627,4.5817875563493065,3.8201882813229835,62.14415016140443
2024-06-18 04:39:33.567582,0.01630199689050483,0.15674691897442666,-0.03479764151973037,-4.554960364460275,5.565371441722048,3.0705319148580164,62.57330440637274
2024-06-18 04:39:33.690012,0.012481125036203815,0.14420977072688226,-0.03283982614684956,-7.083611109748444,6.509437187224019,2.1211417860121804,62.871403303859275
2024-06-18 04:39:33.812937,0.009632150138859924,0.12460488637518707,-0.028156320515216323,-9.118742542120806,6.76555026642505,2.499376906662225,63.14551979020719
2024-06-18 04:39:33.935560,0.006625896214389847,0.09865513440600412,-0.023074111671334534,-10.584314320195746,6.4473432599186244,3.3778048241133924,63.51326329170019
2024-06-18 04:39:34.058405,0.0008310630276798226,0.06977040070806226,-0.01901272831957182,-11.62923305849951,6.468666529967665,4.027676387493279,63.98741626195007
2024-06-18 04:39:34.181146,-0.00616820695188926,0.03792093865068349,-0.016897998002479885,-10.939557859339978,6.617820497595793,3.81571417009479,64.46740716218387
2024-06-18 04:39:34.303762,-0.011532641631565678,0.009700109414320673,-0.012747679334912594,-10.610790042119946,6.743612920887862,3.5589125627431115,64.91251010840395
2024-06-18 04:39:34.426502,-0.01676352489579119,-0.019406317288543865,-0.007618802598082265,-10.603154783470004,6.787110733500756,4.952017172845272,65.40671045222717
2024-06-18 04:39:34.549119,-0.022543637964131228,-0.049706642442182335,-0.004247760864615943,-10.26880546396874,6.21286307182685,4.7508761465693485,66.02457549770556
2024-06-18 04:39:34.671746,-0.030201162490807235,-0.08000097918330616,-0.002127721202569076,-9.589563701228228,5.726445188000882,6.371579702185037,66.73453042691546
2024-06-18 04:39:34.794475,-0.03583360812528459,-0.109961650816173,-0.002590483719971001,-8.256606258492369,5.321052942584997,7.426402637921374,67.57606474300317
2024-06-18 04:39:34.917344,-0.04049891083331973,-0.13221497177522326,-0.0028786727755776287,-6.990816399793493,4.719034896969965,7.456574663372308,68.51790382617239
2024-06-18 04:39:35.039831,-0.04596138835222665,-0.15578761492868473,-0.003475889665123822,-5.6625597071751805,4.13230218675831,9.225917345087773,69.63519162368617
2024-06-18 04:39:35.163324,-0.04836996335611854,-0.1750949565184648,-0.002607805722759085,-4.694333685052482,3.4078270362674647,11.341356065614724,70.84189530926706
2024-06-18 04:39:35.285563,-0.050469206204295396,-0.1910033648958156,-0.0023888556547193,-3.2942456679347027,3.0531152758985414,9.977326559986421,72.07649020637342
2024-06-18 04:39:35.408106,-0.05164889850723083,-0.20587869139457093,-0.0016100808795546297,-2.281554981800387,2.441364900476471,10.03398966480896,73.31084454738095
2024-06-18 04:39:35.530871,-0.051516219203515116,-0.2151089617160984,9.139681567565142e-05,-1.1374258443240808,1.823522162535956,11.124198766037976,74.69144068849809
2024-06-18 04:39:35.653536,-0.0515187229798406,-0.22303752582704933,0.0020969358569319025,-0.9310418254714208,1.742030921060319,10.59013647807679,76.01055557923183
2024-06-18 04:39:35.776276,-0.050677037788668625,-0.22912849184434195,0.0032571583722938377,-0.47161836162377985,1.544985980498994,12.86993131606412,77.41930962420365
2024-06-18 04:39:35.899096,-0.04942438435780498,-0.23360767771647095,0.004004185954209908,0.021125555795561943,0.6462526831997256,11.529294793572552,78.92676879817562
2024-06-18 04:39:36.021757,-0.048921353003845994,-0.23646850268694344,0.005452784549383765,0.9573676981207874,0.14301029546415636,11.593584659388238,80.32238523746855
2024-06-18 04:39:36.144248,-0.045415207975740314,-0.23899318881599,0.00620040927157166,2.9182738127241548,0.5473208917763336,12.725121274294132,81.8158311148773
2024-06-18 04:39:36.267193,-0.04051897723310524,-0.23913628770687528,0.006561566658559977,3.386248348073302,0.4896155257597943,12.90375492442462,83.4704478280126
2024-06-18 04:39:36.389607,-0.03635053689381885,-0.23557562541457094,0.008234158292980083,3.7517263017160185,0.8665700398228454,13.665981742544513,85.04365967036497
2024-06-18 04:39:36.512233,-0.03151987761884351,-0.23067813943524626,0.008171889607092727,4.157458585259067,1.2285115486502105,13.250585900741182,86.73377093057256
2024-06-18 04:39:36.634761,-0.028206440488518565,-0.22718124369901663,0.008249493810110042,4.641511172090495,1.5688769134428011,13.05993086036515,88.3333928723576
2024-06-18 04:39:36.757379,-0.025447973093865043,-0.22036571793536378,0.010212223137402263,4.859471761475141,1.9033778988772612,13.201956840214345,89.95074113079649
2024-06-18 04:39:36.879999,-0.02439053726861513,-0.214160661132439,0.011281347754266185,5.01738694031442,2.3626636530803617,14.12071035021158,91.65494920419151
2024-06-18 04:39:37.002203,-0.022460259870522553,-0.205265322780173,0.013221194569465147,5.604219342874871,2.2432737140977217,13.055402204033498,93.28164896419989
2024-06-18 04:39:37.124974,-0.02144643732566255,-0.1980453084129238,0.014233467062507004,6.030630474605118,2.6555193379977693,13.383144201165168,94.90626602253766
2024-06-18 04:39:37.247663,-0.02050773379537114,-0.18757299687606344,0.015172259456919314,5.724057653877212,2.7452497006763346,13.602773874973494,96.56663245710567
2024-06-18 04:39:37.370280,-0.020508664568375006,-0.17916799759266042,0.017033738357213554,4.990252014615338,3.3729948439864086,13.413610580308998,98.22963274526428
2024-06-18 04:39:37.493145,-0.020744711180747912,-0.16918348564190364,0.0172037436620553,4.8065526802448995,4.038569821363398,14.451935452467264,99.90394516222239
2024-06-18 04:39:37.615641,-0.020530031482843453,-0.1610224012755439,0.016224257007140194,4.009865834899269,4.473058505791276,12.846180957937698,101.56247650082973
2024-06-18 04:39:37.738203,-0.02330896944291752,-0.1540023381974669,0.015206059145450035,3.896976503119661,4.69309757885783,13.069954453205925,103.13153373454901
2024-06-18 04:39:37.860741,-0.024725815893184313,-0.14786057558333104,0.014328434970804212,3.766092645534201,4.4505484301279585,13.380546112281854,104.83179635992671
2024-06-18 04:39:37.983482,-0.02712525823008254,-0.14159112637244536,0.013317168497996456,3.873324052697508,4.61426530782879,13.934672483355715,106.56477295159064
2024-06-18 04:39:38.106097,-0.029222644479552737,-0.13724694441055746,0.013128234226889446,3.593801298114883,5.101779509414596,13.027463295331053,108.19111065277279
2024-06-18 04:39:38.229089,-0.031204228003626277,-0.13331384026379006,0.01316237219037239,3.2976536298063546,5.391492476984879,13.777826148964937,109.80697024662592
2024-06-18 04:39:38.351204,-0.03482784924190764,-0.12687552950220077,0.010726604354699699,3.0665098227766863,5.246893899874415,13.301765814328139,111.4873890169071
2024-06-18 04:39:38.473836,-0.03756504537187303,-0.12353769507012922,0.010058059561158128,2.6398765524886083,5.066801204310553,12.95403554318225,113.0958418751629
2024-06-18 04:39:38.596237,-0.04055656599508034,-0.11937447461435946,0.008890823182485224,2.903031169202049,4.8591688539309015,12.743784861462554,114.65914451966766
2024-06-18 04:39:38.718478,-0.04228560308724244,-0.11618888714952419,0.008072542357168637,3.4760949256442895,5.2521947002937495,12.977510444318298,116.20981826060269
2024-06-18 04:39:38.851414,-0.046397067398742387,-0.11366622523931441,0.0075192630656215655,3.2973526534808655,4.982732543452415,11.808112783658606,117.85775085793023
2024-06-18 04:39:38.975044,-0.05007366882354351,-0.11084502226445758,0.007536580703519027,2.282764737305296,4.589330581186682,10.725061814187914,119.22040093669796
2024-06-18 04:39:39.139033,-0.051669981736232655,-0.10662477811012319,0.00634389919833728,1.8196455973260375,4.423022163587795,8.099933115384234,120.74238815652672
2024-06-18 04:39:39.278022,-0.05218567205604618,-0.1065454054828541,0.006087019094436261,1.5237657348438054,4.142589029652512,7.447748816332524,121.80280994062133
2024-06-18 04:39:39.430761,-0.05337211957356695,-0.10673276192161878,0.0069663049344094365,1.0841179503590737,3.936166555727227,6.98928533339691,122.89514594781005
2024-06-18 04:39:39.598246,-0.05399130374968829,-0.10845764550403263,0.007206523625171006,0.5509814940642802,3.2104736917563255,6.504196676894373,124.00792076183212
2024-06-18 04:39:39.733235,-0.053919258308249104,-0.11170266115249217,0.007161166113868107,0.06919138283491094,2.710095514660949,8.023333962233776,125.02261278888211
2024-06-18 04:39:39.855975,-0.05156727909755379,-0.11601119339185281,0.007159107521642836,-0.5485621901327987,2.4910696161525547,5.720414434734295,125.82770807184416
2024-06-18 04:39:39.978462,-0.04912328250391999,-0.1208443848324638,0.00673851238851944,-0.6840914908935811,2.9712422854287177,7.819550420394877,126.7146462848805
2024-06-18 04:39:40.101121,-0.04611606766597557,-0.1271153679327184,0.005268996222192407,-0.465295352379937,3.2066085906097164,5.708840141888024,127.49699243427565
2024-06-18 04:39:40.223738,-0.044795644431588365,-0.13287711060400811,0.004906331424753523,-0.35727041637027795,2.8993684508947695,5.4088863916088155,128.16633644128694
2024-06-18 04:39:40.345991,-0.04514473193610566,-0.13870170953772742,0.005410721422706989,0.5587258398345785,3.574785778273659,5.691712354076381,128.84460523293734
2024-06-18 04:39:40.468545,-0.0440541466968136,-0.14424929897951239,0.004911752313744548,1.422799034046446,3.933047859713383,5.749054909787594,129.55645404204907
2024-06-18 04:39:40.591088,-0.04406587124806017,-0.14945936594066722,0.00644983476918939,1.2165662424252035,3.778439972382737,4.840896677173357,130.2018886191605
2024-06-18 04:39:40.713949,-0.04683141131405441,-0.15135887331357611,0.007400846963647877,0.3363539759535002,3.9125580526366943,5.1055636970971285,130.77072191696723
2024-06-18 04:39:40.836321,-0.04757608691033102,-0.15479181036055953,0.008002915020080208,-0.009392402292229665,3.57381143792443,3.949259118257534,131.31788827408718
2024-06-18 04:39:40.959057,-0.046925520497917185,-0.15967887194769606,0.0069283522017746365,0.10042679120340951,3.108033394990703,0.9554279995314912,131.5702363851257
2024-06-18 04:39:41.081383,-0.044405972278966754,-0.16322521531320816,0.006115172511812158,-0.24449342812086583,2.1674532054109683,-0.5607188494819617,131.57326393803407
2024-06-18 04:39:41.204110,-0.044410194345570954,-0.17108947002369623,0.006155613109536093,0.047205705058772245,1.4498676605371463,-2.022035728094023,131.40493703514565
2024-06-18 04:39:41.326853,-0.042287634048757385,-0.1792182683786598,0.006253532729061716,-0.4954603571846408,1.131583283715837,-3.2265871191939937,131.0638100831032
2024-06-18 04:39:41.449596,-0.03720206044895639,-0.1881650255737238,0.008165737260066374,-1.0685827708836746,1.3971609073749574,-2.8714889159734613,130.6779200867287
2024-06-18 04:39:41.571843,-0.031164118566482744,-0.1962215855158223,0.008140017017217026,-0.7703724774084648,1.2162670159939215,-5.203062326882821,130.1461562971552
2024-06-18 04:39:41.694461,-0.025433459042383196,-0.204794421977669,0.007153205817058238,-0.29323453261359106,0.6784124351032645,-5.122224885749736,129.57408094422598
2024-06-18 04:39:41.817076,-0.01986544864698465,-0.2150263445314583,0.006215914278115828,0.9003681487786757,0.061783603697546055,-6.571131022911297,128.8235478973922
2024-06-18 04:39:41.939857,-0.011944694404508504,-0.22429482663420777,0.00800158236092658,1.1451516056818303,-0.08809298169700519,-6.274002916029318,128.03049725110677
2024-06-18 04:39:42.062223,-0.002970266679555529,-0.2313787996807736,0.011001379574593045,1.302492870108553,0.2578185050950951,-7.321453317218197,127.11922980372645
2024-06-18 04:39:42.184213,0.006047378816060247,-0.2383372020838446,0.010292464699952666,1.4521835915200374,0.83011111746443,-10.043533985101758,126.04457842070488
2024-06-18 04:39:42.306329,0.013964890599001223,-0.24287946715563064,0.01094142119981276,0.6970879708058051,0.8587793755171557,-11.175416120701595,124.71315939352733
2024-06-18 04:39:42.428773,0.025499124900776157,-0.2519455607474946,0.010385226067535029,0.9969416904829265,0.8476296584548675,-9.65700552923727,123.47381723031319
2024-06-18 04:39:42.551011,0.035168257662236545,-0.2588757040623326,0.009312696116450397,1.1832342557413278,0.5542481431271219,-9.623910670667128,122.23545483373235
2024-06-18 04:39:42.673374,0.042435772079381914,-0.26391660302606984,0.010750412307552259,1.4278041711497411,0.36605952734960534,-9.097429713250277,121.07729340294718
2024-06-18 04:39:42.795693,0.052618982786872964,-0.26889088164032926,0.011230385791020678,1.1359482171204396,0.8069319579248986,-9.727746279975642,119.93400822169336
2024-06-18 04:39:42.918106,0.05866483124361474,-0.2743038689930237,0.012431520607928149,1.0706600188620221,1.6960856795233792,-10.842978468752106,118.62633683109554
2024-06-18 04:39:43.040472,0.06646003297712624,-0.2814417005748386,0.012609610629123861,1.43572038806977,2.1868526940049797,-10.749759895298626,117.31886022872331
2024-06-18 04:39:43.162685,0.07305662535302324,-0.2865303521424172,0.012113675683302454,1.9689015435340476,1.908702960881725,-9.496155459511353,116.10687327663373
2024-06-18 04:39:43.285340,0.07851430283544192,-0.28975819412830417,0.012160340296066203,2.2700603818992247,2.4363403627556215,-9.489896764113668,114.9042762909755
2024-06-18 04:39:43.407908,0.08326363207846017,-0.2920691812112297,0.011739006063837343,2.943729434819948,3.1647658482509335,-8.72411372617563,113.87378091949253
2024-06-18 04:39:43.530521,0.0880226588063572,-0.2950832471838669,0.010690507590850636,3.813777323944728,4.112528261000286,-9.24306223778799,112.76209548311732
2024-06-18 04:39:43.653196,0.09005031036412575,-0.2964045613538925,0.010110936424522257,4.2319325576336,4.86816080747407,-9.689580311251337,111.59684644652656
2024-06-18 04:39:43.775677,0.0905269053632417,-0.29521204749161656,0.010779894921560102,4.773957840824885,5.444244455225569,-9.265636243812526,110.39322137744516
2024-06-18 04:39:43.898662,0.09047929372207505,-0.29336385307665624,0.012246219092908624,4.8721790592689525,5.86573947169837,-9.782796122008625,109.25207988165738
2024-06-18 04:39:44.020823,0.09008203278206209,-0.2907416902083786,0.012365757672060886,5.277645379327322,5.9850978625920295,-10.054186809596224,108.03610896891013
2024-06-18 04:39:44.143439,0.08721254211680907,-0.2869301618442246,0.013394128018200903,5.076232437602982,6.067269506820293,-10.978330527448893,106.74586551125651
2024-06-18 04:39:44.266179,0.08164611101485315,-0.2839498101738251,0.014203779833126139,5.858757127436416,6.072681668117105,-11.500599240866594,105.35496587664949
2024-06-18 04:39:44.388794,0.07873832714458553,-0.28036234288246253,0.014760611843431443,6.017171794450814,5.621019088771862,-11.50497775842673,103.94249802578136
2024-06-18 04:39:44.511660,0.0762651471580435,-0.2752093740997895,0.017271727162943326,5.515702461703204,5.376437894058249,-11.758957547965453,102.51468590290757
2024-06-18 04:39:44.634350,0.07436765730898386,-0.2704492864164564,0.01713165634532045,5.8814028093863575,5.241776025446047,-11.72865668946953,101.0687111120712
2024-06-18 04:39:44.757590,0.07235952077829015,-0.26638020978636706,0.016152915665152152,6.375472831873545,4.646015424343971,-12.02153452547695,99.604956534335
2024-06-18 04:39:44.879831,0.0704515110415839,-0.2613452247832101,0.016239538478017478,6.868157100370162,4.172206953510507,-11.648668985845827,98.15669137180393
2024-06-18 04:39:45.002571,0.07036526094574751,-0.25523524512778656,0.018167800321099572,6.670287808253721,3.52389641747275,-11.769314237325938,96.7283780070372
2024-06-18 04:39:45.125060,0.06847779641048117,-0.24758734793595458,0.018186048342768386,6.632020330916513,3.173293692314051,-11.795804466423332,95.27698598814375
2024-06-18 04:39:45.247679,0.07124724086974088,-0.24199928798616077,0.01908732086611341,6.806698395151315,3.2668912761568727,-11.98531780201169,93.82409742010307
2024-06-18 04:39:45.370304,0.07341458241409064,-0.23503976648181915,0.019182971543609918,7.2319777269259955,3.4156765845171466,-12.55666984331102,92.31529099528755
2024-06-18 04:39:45.493295,0.07538080779717345,-0.22708405578965724,0.020088904949475638,6.693394696205287,3.649255822559302,-10.193419362255447,90.9019583092011
2024-06-18 04:39:45.615786,0.07645212639603075,-0.21999545095040746,0.02111398617450914,6.145884781940674,3.684373577404531,-11.152339762194739,89.5944844033567
2024-06-18 04:39:45.738573,0.07836066134895563,-0.21302046872005798,0.022111688227070977,5.366437989714027,3.0936426784904696,-12.36514718051861,88.16631216902049
2024-06-18 04:39:45.861185,0.07771214256914225,-0.20793198686675546,0.02299163280708611,4.656518123755475,2.467955776901147,-10.639804483923525,86.74063544607922
2024-06-18 04:39:45.983673,0.07906379289136874,-0.2041265525313534,0.02238051895288846,4.258066417810199,2.361102020602286,-11.542494592708024,85.33281090517023
2024-06-18 04:39:46.106291,0.08296810144290839,-0.20195673948693835,0.021312666650292057,4.383535109508171,2.720375820775612,-11.008527609748022,83.87878079643107
2024-06-18 04:39:46.228905,0.08522392022820284,-0.20162035645003423,0.02112814856325328,4.381163654070595,3.419330129907231,-13.044399493307774,82.46487688459231
2024-06-18 04:39:46.351553,0.08617553335633188,-0.20104675944348263,0.021162448292359925,3.8447996198182652,3.828137024558328,-13.684637007443577,80.78495561821777
2024-06-18 04:39:46.473961,0.08651925558631411,-0.19872233563243716,0.021798050904317107,3.7014345189686635,3.8201062848273546,-12.39797132714269,79.24100875051903
2024-06-18 04:39:46.596463,0.08584067411524637,-0.1969113040146885,0.021565960046283625,3.7816718053837453,4.103736272894673,-13.719762684103717,77.598307645661
2024-06-18 04:39:46.719203,0.08607363427253513,-0.19727815851693206,0.020476850379544276,3.3398991758469228,4.67725102558789,-13.726694853944316,75.91820230621937
2024-06-18 04:39:46.841817,0.08588731752391911,-0.1983644024839558,0.01884092271945672,2.9707519716549062,5.13762879844965,-13.706867884577171,74.23364386635964
2024-06-18 04:39:46.964347,0.08754323816237,-0.1987229288764101,0.01891703673339202,3.069432058783594,3.8774456600641622,-13.611254247242822,72.556162429513
2024-06-18 04:39:47.087089,0.09535731368989453,-0.19867825454665758,0.02068003095497559,3.502153079754364,0.8607977429193017,-12.177983797181911,70.97327217944448
2024-06-18 04:39:47.209455,0.10327747067974803,-0.1999444457963472,0.021632747030587565,3.361909924930399,-2.3343282594347894,-10.525048471833784,69.59851669677691
2024-06-18 04:39:47.331945,0.10631936941983806,-0.20308827565024512,0.021785590902781767,3.7365403952536718,-4.315458808403472,-9.736119180077804,68.43523787204035
2024-06-18 04:39:47.454565,0.11124921881286565,-0.20442979353517834,0.02131153622000862,4.570596825234318,-5.166591145588678,-9.32253326951612,67.25199794340486
2024-06-18 04:39:47.577927,0.12495385236067989,-0.20181108257095723,0.022394340748580672,4.571568252439319,-6.065894012996438,-7.208331921197942,66.28568463902243
2024-06-18 04:39:47.700418,0.14129115038991086,-0.1977204852001471,0.023204516355655857,4.33869012432048,-5.945450875503193,-6.913536410376018,65.38937013570613
2024-06-18 04:39:47.823040,0.16231578289647852,-0.19371404710604473,0.02336309662137087,4.015749054586646,-5.084832115253869,-5.261259038376716,64.66780572851307
2024-06-18 04:39:47.945659,0.18171567621502233,-0.18931885509023733,0.023798994743069502,4.209151879681183,-3.5826867131112725,-2.967773776225122,64.252649456132
2024-06-18 04:39:48.068388,0.19581052202533444,-0.1842971152034737,0.022044546266592684,4.530045457538186,-2.253654590746558,-2.4933540153636047,63.90632303359975
2024-06-18 04:39:48.190755,0.20805428808943335,-0.18141028321789712,0.0210516435909968,4.4405344544530765,-1.132558470152567,-0.2215418776026426,63.75047361487559
2024-06-18 04:39:48.313497,0.21802714051322958,-0.17640330983759211,0.019143952253089784,4.4185871972479545,-0.2995263667972559,-0.9058638469049404,63.666972915277896
2024-06-18 04:39:48.435944,0.2259801075975771,-0.17146667840020835,0.01871750531084939,4.31918439867014,0.06504211792569481,1.3026066720669782,63.727926399735914
2024-06-18 04:39:48.558352,0.23382059918358294,-0.1683845532419775,0.01708703639125801,4.463075561008736,0.8045316297187517,1.5928033430892357,63.888886812010945
2024-06-18 04:39:48.681342,0.23858487245926746,-0.16363529229186788,0.016138912295704393,4.365706971011888,1.6785088716418168,2.6405838540054583,64.16330668412047
2024-06-18 04:39:48.803458,0.24159339219711512,-0.1598950922692893,0.015218732213671746,4.464605172926571,2.9332532286509214,3.525595751422212,64.5517683861835
2024-06-18 04:39:48.926074,0.24441497093932107,-0.15773581383280563,0.015138976297183237,4.273301249558325,4.0240829069622315,5.342332543947269,65.14367834071366
2024-06-18 04:39:49.048567,0.24359640348664865,-0.15671203211835352,0.015162210874007964,4.419381914716366,5.0785944988781715,6.20708089158622,65.82174651189487
2024-06-18 04:39:49.171306,0.23972645222562813,-0.15479935079743642,0.015159977611560021,4.361483542266188,5.7351093778160696,6.795039469100888,66.63117620716794
2024-06-18 04:39:49.293668,0.2353355603412223,-0.15220312758576318,0.013537637333143311,4.4534976485168905,6.189934791907966,6.320164401959775,67.4101106985658
2024-06-18 04:39:49.416286,0.2286413424310406,-0.14914919307548039,0.013903244024525212,4.45894599247673,6.84316360661592,6.903153085284222,68.22173404082204
2024-06-18 04:39:49.538776,0.22157519621026933,-0.14696245044108874,0.015009615199141187,4.135639414687844,7.207428017691497,7.6035168860487365,69.1175194981372
2024-06-18 04:39:49.661220,0.20809110150404003,-0.1458080424046921,0.014380866756831843,3.4752859627342625,8.323235546539717,9.19345952846664,70.12382772194334
2024-06-18 04:39:49.783634,0.17177534991965437,-0.15944067940830065,0.01331236185101787,1.0643741685090438,12.214921463331278,7.265733296895416,71.11405980327594
2024-06-18 04:39:49.906249,0.14405495207965738,-0.165811610815665,0.011852278905186182,-0.031877824426904976,18.497746607976445,8.731102744204462,72.12414090718933
2024-06-18 04:39:50.029240,0.11857238194528225,-0.16490393681673354,0.011074520790325724,0.13028087196582452,24.27333534533563,7.961600434495776,73.12869426089625
2024-06-18 04:39:50.151359,0.09264927688960144,-0.171195913751258,0.013076434976510216,0.09985566126693374,26.833533830686594,8.586417097029036,74.18800715022938
2024-06-18 04:39:50.274221,0.057408509268619096,-0.17046883736082216,0.015568635585986253,-0.6820433017984885,27.982547432156462,8.489780518450656,75.29379717818836
2024-06-18 04:39:50.396790,0.020884840049867823,-0.16837903937387033,0.015822454934099353,-1.9054472833743068,28.008588072350445,7.529742660671704,76.26142434794407
2024-06-18 04:39:50.519326,-0.03355622770562542,-0.1765621583254076,0.011314004428689618,-2.6526151993642335,27.357834121289365,5.7815914003423,77.06811714241204
2024-06-18 04:39:50.641694,-0.08817083921463363,-0.18869792603081048,0.000668691161758192,-2.6410494528474238,25.774558458508043,5.604120641942229,77.74061970025812
2024-06-18 04:39:50.764136,-0.13827174585906765,-0.20221265519322756,-0.011904811146682993,-2.0441211249770994,24.112102576418877,2.506047223970422,78.18590961212455
2024-06-18 04:39:50.887050,-0.18354472116893877,-0.21541600909381511,-0.02452820171478897,-2.660029975984355,21.57950368203494,1.9600735367297746,78.44478696936271
2024-06-18 04:39:51.009492,-0.21510025579087835,-0.22424836616199567,-0.03420256420810962,-2.1777189540913287,18.75686483516743,0.9418428254921521,78.62035737161906
2024-06-18 04:39:51.132109,-0.25132711662347235,-0.2342469193234277,-0.0479557546559472,-1.7223000762989709,16.107458674808846,0.4481948783782021,78.72412024659798
2024-06-18 04:39:51.254229,-0.28168675106479096,-0.24552877242178944,-0.060986262665237635,-1.2038924220603646,13.517885263279759,-0.15529732789742984,78.66373055553595
2024-06-18 04:39:51.377193,-0.3043394348112578,-0.2575685789174177,-0.07357378407309077,0.11184743009591683,10.148961589104303,-1.7924283653483588,78.52472486272084
2024-06-18 04:39:51.499538,-0.3198905284592477,-0.2676037342200469,-0.08259126089103269,1.1331926673583717,7.146135132365784,-0.1594763308341931,78.46606839658361
2024-06-18 04:39:51.621998,-0.3309144094001673,-0.2761769052245452,-0.08809042813154584,1.2844158742227547,5.042690735442675,-2.5969045035635565,78.24370987268978
2024-06-18 04:39:51.744931,-0.3368093738272182,-0.28517788437489244,-0.09205485396796564,1.8418549199651426,3.664114181388859,-3.435023457296636,77.86064528069176
2024-06-18 04:39:51.868126,-0.33949400522716533,-0.29303578305380923,-0.09493691817778493,2.4057644838387438,2.327763583787989,-4.100522138832575,77.38830214218888
2024-06-18 04:39:51.990658,-0.33731225230345224,-0.29810562951552094,-0.09587499431204677,3.632124846623241,1.1524276572123495,-5.160996553728058,76.80912302731578
2024-06-18 04:39:52.113145,-0.3324741031077901,-0.3047513664006765,-0.09584771629297859,4.514078192715278,0.37872482716540995,-5.583376503800945,76.13889848017905
2024-06-18 04:39:52.235607,-0.32500922209035776,-0.30848751069232905,-0.09237607306471203,4.9935868057997155,-0.6279857476833999,-4.86415925170589,75.57732022650355
2024-06-18 04:39:52.358146,-0.3150352676350686,-0.312482938988256,-0.08809210006549563,5.552613744417297,-1.407896426070923,-5.919807368481486,74.87877795313709
2024-06-18 04:39:52.480873,-0.30313587796736285,-0.31462493378993284,-0.08308996670964652,6.601867920280831,-1.8970750647274057,-5.22716587547784,74.27213030301998
2024-06-18 04:39:52.603251,-0.29109530383925813,-0.31471640424125064,-0.07808014268950106,8.186222046184731,-2.3895515571469725,-4.909655915441847,73.58588034250795
2024-06-18 04:39:52.726102,-0.2772373503233326,-0.3109507105782761,-0.07215039406110557,9.651558607768315,-2.9092710114517697,-6.742617219372866,72.86613655551061
2024-06-18 04:39:52.848218,-0.264872185209448,-0.3065331823876395,-0.06522540751597068,10.78994392012418,-3.33848499614578,-7.861536279777701,71.95772972856568
2024-06-18 04:39:52.971088,-0.24909785239905669,-0.29903017591067416,-0.057092681947948073,11.521332025773157,-3.4978228439770884,-8.538033329481344,70.93135086085816
2024-06-18 04:39:53.093705,-0.23221761568453622,-0.2884965966777102,-0.04808680362870931,12.25900506808581,-3.775440529323825,-9.024501038798842,69.85816020193671
2024-06-18 04:39:53.216319,-0.21519045232379297,-0.27659098539657145,-0.039837511778101076,12.784563257471742,-3.81265103155526,-9.723357798261972,68.69849218781208
2024-06-18 04:39:53.338935,-0.20049935261968188,-0.26536673246361747,-0.03287579508460417,13.092323315920348,-3.7799041969133964,-9.338984715331511,67.48870881647322
2024-06-18 04:39:53.461425,-0.18292341775853335,-0.2505234173624527,-0.02499674647709611,13.302720161343109,-3.7733697606232446,-10.375842574217339,66.30857196609887
2024-06-18 04:39:53.584291,-0.16531354977480212,-0.2354698884173567,-0.018716204170851018,13.470693080954545,-3.6977138656039266,-10.176564055795938,65.06984573590358
2024-06-18 04:39:53.707028,-0.14791162739368857,-0.22047541645877658,-0.012760813852986302,13.347405864622228,-3.7898992429405753,-12.040390153373563,63.66171720308744
2024-06-18 04:39:53.829176,-0.13223174838172627,-0.20356151082771537,-0.008034237959125511,13.982152585095715,-3.687211924560509,-12.653424178848946,62.1520971815629
2024-06-18 04:39:53.951903,-0.11929947686375524,-0.1897455248786531,-0.00498730904121902,14.391544290570483,-3.5250368277517383,-13.54005097905257,60.53539372041346
2024-06-18 04:39:54.074763,-0.10193873174339459,-0.17230639086214483,-0.0009695617542190441,14.672007784633175,-3.251601818092755,-13.128414583776097,58.959192166505225
2024-06-18 04:39:54.197171,-0.08641372611053211,-0.15421607038005078,0.0026197572518356794,14.724043357414743,-2.5741032159007284,-13.204782470463337,57.3596625403847
2024-06-18 04:39:54.319915,-0.07315945718288477,-0.13495640152692684,0.00514852628711453,15.615830186602432,-2.217466309971318,-15.044117357744803,55.57925831333548
2024-06-18 04:39:54.442277,-0.06234950043353466,-0.11339193802375613,0.007099568329341942,15.25238249870504,-1.9215087321661737,-15.795774877477402,53.69499772296513
2024-06-18 04:39:54.564891,-0.05420318038501825,-0.09604522252119664,0.008454671833353937,14.857672321462985,-1.854703478792882,-16.015591634326732,51.69372185442407
2024-06-18 04:39:54.687884,-0.04558535765666855,-0.07402663036387612,0.009198786408785756,14.299768902150229,-1.3410081851927527,-17.37821743870461,49.66307974534137
2024-06-18 04:39:54.810498,-0.03818050384088278,-0.055268996884924745,0.008965666308565653,13.784493055904234,-1.279144279784155,-16.89825948246246,47.573604763423134
2024-06-18 04:39:54.932862,-0.032507573100350906,-0.03754176489001205,0.007922450007713296,13.674325809009899,-1.369692212069047,-19.248991074144648,45.39923862719984
2024-06-18 04:39:55.055480,-0.024331257980801737,-0.02340380199746093,0.007162685445157112,12.881376897937669,-2.3244055460424238,-21.060449538739135,42.878236346052454
2024-06-18 04:39:55.177847,-0.005944023879697419,-0.012152208835164496,0.008158426198872096,11.757088215268693,-4.727603308947747,-19.928605762197208,40.3293667620278
2024-06-18 04:39:55.299967,0.02585823896832688,-0.002595536971577769,0.008174341006042867,11.69952679389065,-9.510044206875916,-20.009559553773762,37.927939517508214
2024-06-18 04:39:55.422525,0.048531730810352024,0.017074778802413707,0.00815794720911436,12.127045809429431,-14.087011239075494,-19.41502872940115,35.51717942101616
2024-06-18 04:39:55.544646,0.0614044989541665,0.029926247052784356,0.00816009408348084,11.5204240432729,-17.16716976445234,-19.84938182277566,33.12442023573802
2024-06-18 04:39:55.666878,0.07464977549659867,0.03647279607162945,0.008160015436291107,8.974612051246334,-17.528052488249354,-20.92343717078382,30.628720165284285
2024-06-18 04:39:55.788548,0.09807304810695554,0.04570037409872714,0.007228796136953879,6.039625479140932,-16.85000651384805,-21.67370914822007,28.011932705289677
2024-06-18 04:39:55.910916,0.1261321941930367,0.05771013669739952,0.0024812199774550433,3.8508481231362617,-16.02497595844662,-20.344721737852,25.433509190032325
2024-06-18 04:39:56.033402,0.15226520706769858,0.06602050148440394,0.00018602762702884132,1.3592124264770569,-15.494271258895575,-18.160907787526604,23.101399551363485
2024-06-18 04:39:56.155770,0.18008187665646516,0.07206175909946959,-0.0008051598304947638,-1.3101831210554005,-13.666846838929969,-16.686925492610413,20.992345596599478
2024-06-18 04:39:56.278133,0.2043957769130018,0.07000504577111719,-0.0024805680218610757,-1.499392569754106,-10.29208019375494,-15.550490669717806,19.031512702531266
2024-06-18 04:39:56.400001,0.2272366683517055,0.06595994053204567,-0.006150451663075935,-1.80416865393384,-7.601648270335498,-14.589775707262115,17.21303697644603
2024-06-18 04:39:56.522312,0.2449443582083022,0.06113531016120002,-0.009404925332346947,-2.28632416271024,-5.608942822676138,-13.328038928627453,15.583814581575927
2024-06-18 04:39:56.644671,0.2593620264323749,0.05367043072736141,-0.011554967886948169,-2.227555181368898,-2.744353333514301,-13.238709503810574,13.91581686608008
2024-06-18 04:39:56.766721,0.2676569024905675,0.048384780657564755,-0.011900681019349138,-1.8320497300748861,-0.008947490752715115,-11.881780207683542,12.469575494066609
2024-06-18 04:39:56.888964,0.27148060685190256,0.04164379675172294,-0.013749116630846334,-0.9599329239810719,2.3730599208541743,-12.42875024978822,10.978869370037646
2024-06-18 04:39:57.011702,0.2625800779186109,0.02370259449897983,-0.013695808475676722,-3.116248818055017,5.6370467558050965,-10.729150241258933,9.54846874282591
2024-06-18 04:39:57.134072,0.23325564571027332,0.00024135302962039504,-0.011472543672192772,-5.156550339765187,9.821257319066941,-13.733067252665988,8.06145205753505
2024-06-18 04:39:57.256187,0.21254690631435771,-0.006350001185894784,-0.009488408725420831,-5.946261099120813,13.472844683993742,-11.595691563907621,6.526040797546255
2024-06-18 04:39:57.378675,0.19849103638541302,-0.007715289135624172,-0.005592206706373706,-4.683313654504094,13.805753309355598,-11.57139347809803,5.141927092241211
2024-06-18 04:39:57.500916,0.1804840104171035,-0.020470364105069225,-0.008500305365794993,2.367020351496859,4.3081419620678245,-10.30943011026856,3.8047253809342627
2024-06-18 04:39:57.623029,0.1627817325926976,-0.031521924136903016,-0.023829281288233365,6.160310301757039,-0.8098385080667938,-9.63157952276093,2.576862596307825
2024-06-18 04:39:57.745398,0.16073220636698388,-0.03308578004298902,-0.03342195029154221,5.4726914828001165,2.665956541291243,-6.972103722658238,1.6055964110032488
2024-06-18 04:39:57.867638,0.1673110285174659,-0.03038669732453339,-0.031955040117791864,4.51588157820204,6.838592036324656,-7.308589167375471,0.7466955837533822
2024-06-18 04:39:57.989836,0.16638819710219888,-0.024256519377236375,-0.022063566431951516,5.694032686039087,6.661523950579605,-7.767375344939141,-0.18336561127384624
2024-06-18 04:39:58.112371,0.1550815962151624,-0.01802994033441469,-0.016119875006807977,7.123506108109587,6.391758059692517,-7.635091651585858,-1.131833464292468
2024-06-18 04:39:58.234612,0.1444536635193594,-0.009805933022295673,-0.014936146072365193,7.780298352722798,5.500160317615073,-7.3632973097487495,-2.04457842296874
2024-06-18 04:39:58.356856,0.1335778423236234,0.001350721783844262,-0.015828261802953714,8.084971531512831,5.447209187320658,-6.225098279672082,-2.876718542151691
2024-06-18 04:39:58.479350,0.12602350715020721,0.01183499021732049,-0.014752621126432226,8.027724944048398,5.186183790889955,-4.937993298747456,-3.539386816229734
2024-06-18 04:39:58.601586,0.11804585035598913,0.021026583352468178,-0.012819449214268945,7.463901699699693,5.235368392005425,-3.9060985974788434,-4.068530973899883
2024-06-18 04:39:58.723951,0.11104591510691766,0.03291440625064087,-0.012862039330907227,6.416918360686163,4.581238138411039,-2.625563195514176,-4.459971531537836
2024-06-18 04:39:58.846065,0.10438266345578666,0.0424898533603931,-0.013846706271511145,5.4281336137991705,4.332835652645333,-1.5787466949424411,-4.694486004224149
2024-06-18 04:39:58.968558,0.10067636669456735,0.049878126837608366,-0.014784069342193912,4.262066813945814,3.7520641897031983,-0.6704681308409104,-4.757407406477618
2024-06-18 04:39:59.103297,0.09663073568476041,0.05723318521614959,-0.015745890345391027,2.641718405617941,3.542471178305675,-0.9928488447049825,-4.901976837612513
2024-06-18 04:39:59.245535,0.09537550456645331,0.06219627925712573,-0.014894412363653211,0.38019767728605736,3.495165242498856,-0.5158093840959546,-4.989244040974623
2024-06-18 04:39:59.395022,0.09462270395242287,0.061350347564749365,-0.013389252099189338,-2.029852327153334,3.3206249981073874,-0.7419578297095655,-5.081442884372546
2024-06-18 04:39:59.571269,0.09383755054015092,0.05436504003437607,-0.01039476529941269,-4.858562452338547,3.0398450060909585,-0.9296306463478449,-5.245091317078963
2024-06-18 04:39:59.723620,0.0904354968993065,0.026963557303731553,0.004446715931794324,-9.663465086721468,2.4900845019076034,-0.44705064770854863,-5.349455884172008
2024-06-18 04:39:59.846237,0.08764665217115428,0.006298694137603462,0.05575088821377058,-11.43794852987416,2.91034368035785,-0.976043570155153,-5.3692631601786704
2024-06-18 04:39:59.968976,0.09088035966070715,-0.022104829260207595,0.04080065751894876,-11.75957421626612,2.9626711834605954,-0.4031662336368539,-5.483071137719801
2024-06-18 04:40:00.091595,0.09232099633741417,-0.051062182460414905,0.031067514724615324,-11.535310621814059,3.266065482581885,-1.981863071366632,-5.657368965654839
2024-06-18 04:40:00.214081,0.09332797334686725,-0.08531399232658934,0.029127025261491832,-10.736952254250076,4.10309001654641,-2.46249945228524,-5.933935869154956
2024-06-18 04:40:00.336703,0.09351088831217266,-0.11690790441074511,0.02833412063369607,-9.33158446063579,4.866498349709727,-2.8936034852367074,-6.272407185351014
2024-06-18 04:40:00.459442,0.09185534738989554,-0.14779848283389765,0.02731746424612753,-7.430364136208042,5.389205192968279,-2.7292674105091024,-6.622364563377912
2024-06-18 04:40:00.581933,0.08816730139102269,-0.17475007434490844,0.02712811097435738,-6.896787781758861,3.9418441721722774,-1.1098917514089777,-6.885916954372605
2024-06-18 04:40:00.704426,0.08415890439652828,-0.19416333044457093,0.03673170213098707,-12.110066506197459,0.9761437304728926,-0.22695846697027022,-6.877957667920581
2024-06-18 04:40:00.827165,0.08418332345909665,-0.21921632188388002,0.05621659495774074,-8.520913185504254,3.3915101185562944,-0.0984974926315115,-6.9576620397758795
2024-06-18 04:40:00.950033,0.08880836657032931,-0.24537883709223623,0.056409155455882355,-2.3527651120959576,1.9832164132095291,2.6428003681821814,-6.758035256825383
2024-06-18 04:40:01.072774,0.08942220233624065,-0.26817895135775227,0.03847867556590215,0.718267801844493,2.7453014886931917,0.23574956684028478,-6.6184955933208025
2024-06-18 04:40:01.195345,0.08966007901025375,-0.28130284654533777,0.027503749163925416,4.855447336331163,3.4386976359777934,0.048738393883526444,-6.613770585178084
2024-06-18 04:40:01.318000,0.09267646003160193,-0.284461753263839,0.025926686928901405,6.970925858106678,2.514326593941667,0.9600348944459914,-6.582843767471339
2024-06-18 04:40:01.440739,0.09698260227938484,-0.2817581255819061,0.02533154280344102,9.149992286888795,2.2787432107107684,0.47950096769625083,-6.46044247408606
2024-06-18 04:40:01.562862,0.09862866402281867,-0.2722850447004371,0.025751970157650354,11.202770911058671,2.8448815516025197,1.7249554384331653,-6.301584391346819
2024-06-18 04:40:01.685476,0.09805807902050945,-0.2579300711308194,0.02834828323622977,13.172569721661267,4.302012965380332,0.9517774947940532,-6.160156583730093
2024-06-18 04:40:01.808341,0.09723144018242821,-0.24348679150723823,0.028762941670524622,15.462676432953584,4.663528017407449,1.0553529715528258,-6.036780087911382
2024-06-18 04:40:01.930708,0.09564655607363065,-0.2208717767792174,0.03126934514084244,17.49165246584011,4.162187013290868,1.3315170065232862,-5.903439628069283
2024-06-18 04:40:02.052817,0.09192688601289328,-0.19446235983799864,0.03152937368136781,18.523386856196918,3.204392455804231,1.4861363527824671,-5.654108888122739
2024-06-18 04:40:02.175267,0.08958757577183277,-0.16263793173650745,0.03252148236383867,19.64701348726243,3.1558111170559164,0.9182905920291836,-5.534392923815818
2024-06-18 04:40:02.297298,0.0865216871348735,-0.12769819602798005,0.031541758037575404,20.30643393448805,2.766294792678453,1.2458836332486023,-5.397864849130063
2024-06-18 04:40:02.419542,0.08749640918355053,-0.09538154470287413,0.02899895703089612,19.776760579054663,2.28501944973372,1.2438534963835743,-5.25606129932606
2024-06-18 04:40:02.542034,0.08753731884813029,-0.059592119172137456,0.027770938224522236,19.477174446362323,2.966919152953449,1.34158256477669,-5.021492468722625
2024-06-18 04:40:02.664274,0.08861947390064706,-0.020469867068653544,0.019481742138704263,18.87457681350606,3.269806808386097,0.77283790300873,-4.92472309092215
2024-06-18 04:40:02.786403,0.09159423592769698,0.01548293245637037,0.003940042541916195,18.646192976771786,4.168697122829874,1.5456915250700447,-4.700774428342134
2024-06-18 04:40:02.908584,0.09352315967451826,0.0488213607163116,-0.039139503357474195,16.923713868337114,5.139681774137118,1.6953675358220572,-4.5378980134181734
2024-06-18 04:40:03.030993,0.08884443954084112,0.08316655379383388,-0.03195245390106358,14.61258935491152,6.120926222884903,1.3422556406191133,-4.3855227335534455
2024-06-18 04:40:03.153234,0.08277533559801488,0.1149661901968915,-0.03243460524705808,12.113128769013063,7.087683058111075,-0.3344422685213349,-4.360322003593215
2024-06-18 04:40:03.276225,0.07490556352321946,0.13929271078086458,-0.03477096406649257,9.492618426544192,7.928095084057651,1.7678726381937,-4.312525265700675
2024-06-18 04:40:03.398216,0.06406844949101946,0.1575571801104895,-0.038606174964235004,6.086348549053702,7.462850900253107,0.685963658937409,-4.120421268993936
2024-06-18 04:40:03.520206,0.05432492908514704,0.16840975114642312,-0.03811493840527892,2.026601212315861,7.5189276844390385,-0.2146603809770749,-4.067176653239828
2024-06-18 04:40:03.642446,0.043035619687729454,0.17474272334011548,-0.028874045679023044,-0.5215687713655295,7.946606523574918,-1.1878331245730103,-4.190163568250829
2024-06-18 04:40:03.764936,0.032217849521569336,0.17140792864759838,-0.022412908924711115,-1.162978067616638,7.110069442068719,1.2415799993972263,-4.219834509239196
2024-06-18 04:40:03.887804,0.022021806988707204,0.1628370422610653,-0.02656211876412093,-1.8861975008849348,6.403650879385635,-0.7185775758702899,-4.180409012374208
2024-06-18 04:40:04.010297,0.014487737184714449,0.15210248929020415,-0.024811970393564045,-2.7652498769467666,5.262481389294288,0.1201353980369721,-4.196382169856876
2024-06-18 04:40:04.132660,0.00688633771764457,0.14167415943291362,-0.02050110972230475,-3.6776384761988243,4.654904445760024,0.09242642166714907,-4.2174177525256775
2024-06-18 04:40:04.255595,-0.00013268193499026842,0.1284808431491556,-0.017990052136477586,-4.022256349868277,4.511237279549955,1.0390911324286627,-4.177322071034793
2024-06-18 04:40:04.378086,-0.0036406900373995767,0.11355855921410998,-0.01588934107419381,-3.9359941514960446,3.925980608861984,-1.458285922835335,-4.252342024964976
2024-06-18 04:40:04.500220,-0.006555458154289921,0.09806857851306273,-0.005779949601656997,-4.390367193486979,2.803030542089205,-1.8009344503966782,-4.451743707936928
2024-06-18 04:40:04.622618,-0.008068338742599141,0.0859395143567401,0.0018797132814783435,-4.5194097425675634,2.519052696437727,-1.745821829731469,-4.607142828509309
2024-06-18 04:40:04.744847,-0.008563110786480194,0.06856946671534112,0.003537192986415661,-3.46573291007766,2.2821041326235894,-2.9579341088910795,-4.928268429137585
2024-06-18 04:40:04.867439,-0.008098553456533195,0.05065131849968651,0.002064780073541251,-3.028353625196092,1.661639501316058,-1.9155374322627883,-5.195351447140501
2024-06-18 04:40:04.990181,-0.006628367576989035,0.03564132359495453,0.003419089465913546,-2.3048245065467525,1.4610083260217455,-1.7714753200412154,-5.487565816065146
2024-06-18 04:40:05.112689,-0.0045800208208931865,0.02258602579842701,0.004040771988967548,-1.9072975347519678,1.6055951265722719,-1.6782110524220708,-5.6731720015753755
2024-06-18 04:40:05.235327,-0.002627907979724878,0.01355470296842247,-0.0007616657612995869,-0.5529808815007679,1.5445976702367625,-0.0939986043906122,-5.671447862568008
2024-06-18 04:40:05.357690,0.0016251032158595524,0.0027151293830479754,-0.01555295388969365,1.0408615451783694,2.565213383886702,-0.7801424929613788,-5.702730498678194
2024-06-18 04:40:05.480183,0.00588908016794883,-0.007342428624814383,-0.02534296064078556,1.6361311551798718,2.909737742057156,-1.211748395241136,-5.8537335877499945
2024-06-18 04:40:05.602421,0.00654177745385353,-0.012552870029508256,-0.010517697253060029,2.133155814166597,2.81532430598641,0.19180940823180773,-5.838035657276027
2024-06-18 04:40:05.724698,0.006433291627871942,-0.01490659831724098,-0.007113258286140567,-0.3452901775607842,5.805547607024756,-0.7536688436200931,-5.886223811559838
2024-06-18 04:40:05.846990,0.005107225371555738,-0.016973313786706776,0.004126317327263217,-0.7667851283953933,5.488199478469876,-2.3337739761189034,-6.079192756344098
2024-06-18 04:40:05.969979,-0.002740914479984898,-0.023181599604336838,0.04394878110882348,-0.039497583150194866,2.8051406619968136,-5.4510688415163475,-6.5839178482028915
2024-06-18 04:40:06.092463,-0.006726651268981995,-0.03324554054252968,0.03401520096186265,0.609427300726554,2.8688193142958482,-8.423246102842443,-7.463337953887779
2024-06-18 04:40:06.215129,-0.008655050102533444,-0.043289946292732674,0.020000229492683125,0.4046805926981492,3.2289241907228927,-10.702686464278521,-8.681702245786807
2024-06-18 04:40:06.338002,-0.010545046046748552,-0.05282129816505262,0.022006257775466352,0.4271548030678379,2.3145211740257565,-10.685136231612816,-10.0132508500882
2024-06-18 04:40:06.460995,-0.009611567125009872,-0.05931083840262635,0.01662560737436997,0.013953241029897584,2.4985647643665576,-10.012371723885957,-11.276820213679187
2024-06-18 04:40:06.583345,-0.01042477271790638,-0.06820198604086893,0.013224260593481443,0.5887929642251868,2.8452637776051093,-8.125813540148856,-12.39596068285467
2024-06-18 04:40:06.705971,-0.011476507255625223,-0.07631940753109698,-0.007380765354565422,3.229088397041277,3.974332413495848,-5.231683564836657,-13.177178055947033
2024-06-18 04:40:06.828907,-0.011540464645006916,-0.0852223341040626,-0.024233382977780934,4.267317319442004,4.8882289768118685,-3.4057903125394238,-13.679095002938315
2024-06-18 04:40:06.951441,-0.015573490909415035,-0.08667790694260753,-0.011363762271769457,5.404217146510316,4.987130933921054,-2.2137420658945963,-14.006562216717851
2024-06-18 04:40:07.073934,-0.020745705499676123,-0.08344875098779696,-0.0031699856634565928,6.318998356040954,4.890105707975935,-1.5142776073225086,-14.224793595586911
2024-06-18 04:40:07.196447,-0.024923303640101653,-0.07848639591892469,-0.0010868484939112312,6.807768333600992,4.664179876384752,-1.012416528172521,-14.372745366558124
2024-06-18 04:40:07.319165,-0.029699695636978815,-0.07184106504353245,0.0024583381607557312,4.333913094536467,4.888275347354061,-1.0954012551497785,-14.490386510339796
2024-06-18 04:40:07.441906,-0.03392501070530562,-0.0647759320865894,0.019514929152826557,0.9086942360518107,5.7401411418150605,-2.920939944410882,-14.745189164491741
2024-06-18 04:40:07.564279,-0.038471989700869784,-0.065372371857846,0.03339948300766557,2.5198362720715104,3.768473600819901,-5.579999439795758,-15.286357776901452
2024-06-18 04:40:07.686888,-0.04268808138414137,-0.06874229217529058,0.03239451502899044,3.61858746182465,2.288649777767217,-6.977255467284997,-16.08968716394914
2024-06-18 04:40:07.809878,-0.045780847967223946,-0.07363664353686711,0.02131934163878183,3.7908892289195446,1.8812059074770646,-9.3188838195463,-17.199858148463143
2024-06-18 04:40:07.932327,-0.04567317776533612,-0.0772143034897982,0.018365120448803677,4.718732182810685,0.4567086018103361,-11.085619022588105,-18.410095755081738
2024-06-18 04:40:08.055233,-0.04121192208441844,-0.07839740845248741,0.014756202001521113,4.368679536333199,0.0183746975335353,-11.533652211507011,-19.828541586550376
2024-06-18 04:40:08.177854,-0.03887938361816552,-0.07871905673095518,0.012276153194574129,4.221465531980948,0.6745848793273997,-9.618018743980572,-21.04674603217741
2024-06-18 04:40:08.300419,-0.03721514715867085,-0.07909994799317391,0.01195045573159108,4.374517670269756,1.3197384999484154,-10.590167599221761,-22.38411155266585
2024-06-18 04:40:08.423083,-0.03369090973302924,-0.08014908623247209,0.01086431391180633,4.9389284792567,1.1833597552458337,-11.73623832542493,-23.762669607960177
2024-06-18 04:40:08.545796,-0.03006065860347859,-0.08072913714838008,0.013093558572411788,5.1815632625947625,0.7603575666621266,-11.554897304551154,-25.121921144254294
2024-06-18 04:40:08.668515,-0.02817532608534034,-0.08048170042680462,0.014062157741366588,5.4724930208863976,1.3403165743924306,-11.677108914286604,-26.622337881598718
2024-06-18 04:40:08.791372,-0.027084247137784883,-0.0798402830130188,0.012924128642824993,5.452087239642911,1.671451715655022,-12.71951144057475,-28.135242826555867
2024-06-18 04:40:08.913989,-0.024844834243452525,-0.08036060630115001,0.012313648096499185,5.11628522732177,1.7181826401596068,-11.604944343777623,-29.55273664916629
2024-06-18 04:40:09.036106,-0.02259500753224704,-0.07941616457709681,0.013590777505024543,4.337419102401674,1.799009253556962,-10.0904300629798,-30.906291313409913
2024-06-18 04:40:09.158851,-0.023343961891763413,-0.07884082957647348,0.014845074821406432,4.673247130734343,1.7243200552762084,-11.42535145448544,-32.216271876104855
2024-06-18 04:40:09.281297,-0.022446012471945283,-0.0796665966700671,0.01291041264504302,5.39741096657148,1.8070143333628912,-11.136106665011118,-33.60893943263531
2024-06-18 04:40:09.403956,-0.02137104562925786,-0.07859194670678837,0.007934423369586708,6.554442625948967,1.9897911248727538,-8.988420122514935,-34.84927134439517
2024-06-18 04:40:09.526822,-0.01854576713210924,-0.07642891135227471,-0.01728837665767742,7.38687945098499,2.8558265254910413,-4.263797773604017,-35.65318422739174
2024-06-18 04:40:09.649438,-0.019623925496907387,-0.07127219808877586,-0.023593229948878268,7.354496979475179,3.7987643801865003,-3.7228929572738036,-36.11732950960279
2024-06-18 04:40:09.772178,-0.022639826077443203,-0.06322591365111112,-0.010705167303634688,7.284520172841755,4.231057102015367,-2.7898922971357636,-36.51005506280437
2024-06-18 04:40:09.894994,-0.024562853867285118,-0.05556142899258295,-0.0076502216376925095,7.096352812650766,4.311549233842564,-2.246206051484446,-36.808474140031144
2024-06-18 04:40:10.017710,-0.026402806768296913,-0.04814076976641312,-0.005033313148884018,6.925278333990035,4.258178321541811,-1.9239631658811394,-37.061639830617835
2024-06-18 04:40:10.140324,-0.030286799756503908,-0.04006281355346799,-0.0047762425837689715,6.652552702498957,4.180680947659033,-1.5684399945495575,-37.271646109164855
2024-06-18 04:40:10.263065,-0.033400297693315456,-0.032997095254835296,-0.004846489706221389,6.253440477896213,4.01743809878966,-0.5053428645216921,-37.32364576697264
2024-06-18 04:40:10.385637,-0.03637269293161289,-0.026020531403549138,-0.004839963225921263,5.86572769459204,3.7987389691683284,-0.9904654757990441,-37.44084270748765
2024-06-18 04:40:10.508296,-0.03820381476727196,-0.020669468552253014,-0.005651080793105867,5.12171197856628,3.0714762179982142,-0.44501738718574796,-37.52468717287905
2024-06-18 04:40:10.630788,-0.04101461834612455,-0.014625161829553495,-0.001006973010203658,-0.39423019241993784,1.2565989944132805,-0.247254638542041,-37.556396933840325
2024-06-18 04:40:10.753405,-0.04242869003011998,-0.01186705870338374,0.02632337970508739,-2.146866618426591,2.0302307772622017,0.16516051372537707,-37.57157375166765
