EstS,AccX,AccY,AccZ,GyroX,GyroY,GyroZ,Temperature,FrameType
3415.075314251,-0.153,0.045,0.988,0.183,11.658,0.977,0.0,N/A
3415.095003281,-0.153,0.045,0.988,-1.038,-16.968,1.953,0.0,N/A
3415.104421385,-0.153,0.045,0.988,-1.038,-24.597,1.404,0.0,N/A
3415.113114705,-0.153,0.045,0.988,-1.038,-31.494,1.16,0.0,N/A
3415.123040011,-0.153,0.045,0.988,-1.221,-38.757,1.404,0.0,N/A
3415.134006264,-0.153,0.045,0.988,-1.709,-46.875,1.953,0.0,N/A
3415.144034527,-0.153,0.045,0.988,-2.014,-52.979,2.319,0.0,N/A
3415.154019625,-0.153,0.045,0.988,-2.258,-57.739,2.563,0.0,N/A
3415.163989264,-0.153,0.045,0.988,-2.441,-61.768,2.808,0.0,N/A
3415.17507189,-0.249,0.046,0.975,-2.625,-64.941,2.991,0.0,N/A
3415.185029571,-0.249,0.046,0.975,-2.747,-66.711,3.113,0.0,N/A
3415.195030418,-0.249,0.046,0.975,-2.869,-67.261,3.113,0.0,N/A
3415.20605267,-0.249,0.046,0.975,-2.808,-66.406,3.052,0.0,N/A
3415.215974185,-0.249,0.046,0.975,-2.747,-64.148,2.93,0.0,N/A
3415.226019657,-0.249,0.046,0.975,-2.686,-60.913,2.808,0.0,N/A
3415.236021087,-0.249,0.046,0.975,-2.563,-56.396,2.563,0.0,N/A
3415.247020881,-0.249,0.046,0.975,-2.258,-50.11,2.38,0.0,N/A
3415.256970395,-0.249,0.046,0.975,-1.892,-43.274,1.892,0.0,N/A
3415.266985826,-0.249,0.046,0.975,-1.526,-35.461,1.526,0.0,N/A
3415.276988423,-0.249,0.046,0.975,-1.16,-26.794,1.099,0.0,N/A
3415.288357463,-0.249,0.046,0.975,-0.671,-16.357,0.61,0.0,N/A
3415.306033724,-0.145,0.045,0.988,0.061,2.014,-0.061,0.0,N/A
3415.316022613,-0.145,0.045,0.988,0.488,12.024,-0.671,0.0,N/A
3415.325941211,-0.145,0.045,0.988,0.916,21.423,-1.16,0.0,N/A
3415.336017307,-0.145,0.045,0.988,1.343,29.846,-1.526,0.0,N/A
3415.346065695,-0.145,0.045,0.988,1.709,37.292,-1.831,0.0,N/A
3415.356974199,-0.145,0.045,0.988,2.075,44.373,-2.258,0.0,N/A
3415.366987296,-0.145,0.045,0.988,2.319,49.316,-2.563,0.0,N/A
3415.376969768,-0.145,0.045,0.988,2.38,52.612,-2.747,0.0,N/A
3415.387926688,-0.145,0.045,0.988,2.441,54.138,-2.869,0.0,N/A
3415.398114199,-0.145,0.045,0.988,2.38,53.589,-2.686,0.0,N/A
3415.408025797,-0.145,0.045,0.988,2.258,51.208,-2.686,0.0,N/A
3415.418202809,-0.145,0.045,0.988,2.075,47.485,-2.502,0.0,N/A
3415.428120824,-0.145,0.045,0.988,1.831,42.603,-2.258,0.0,N/A
3415.439133159,-0.071,0.043,0.989,1.526,35.889,-1.709,0.0,N/A
3415.449191464,-0.071,0.043,0.989,1.221,28.809,-1.526,0.0,N/A
3415.459056104,-0.071,0.043,0.989,0.854,21.179,-1.16,0.0,N/A
3415.469124034,-0.071,0.043,0.989,0.549,13.184,-0.732,0.0,N/A
3415.480123828,-0.071,0.043,0.989,0.183,5.31,-0.305,0.0,N/A
3415.490128759,-0.071,0.043,0.989,-0.061,-2.869,0.0,0.0,N/A
3415.500081773,-0.071,0.043,0.989,-0.366,-9.827,0.366,0.0,N/A
3415.510122869,-0.071,0.043,0.989,-0.61,-15.93,0.671,0.0,N/A
3415.520143258,-0.071,0.043,0.989,-0.854,-20.996,0.916,0.0,N/A
3415.531175135,-0.071,0.043,0.989,-1.038,-25.146,1.099,0.0,N/A
3415.541053483,-0.071,0.043,0.989,-1.16,-27.405,1.282,0.0,N/A
3415.551127538,-0.071,0.043,0.989,-1.221,-28.198,1.343,0.0,N/A
3415.562147457,-0.176,0.045,0.991,-1.16,-27.405,1.282,0.0,N/A
3415.572151221,-0.176,0.045,0.991,-1.038,-24.719,1.221,0.0,N/A
3415.582141276,-0.176,0.045,0.991,-0.916,-20.691,1.038,0.0,N/A
3415.592140956,-0.176,0.045,0.991,-0.671,-15.32,0.732,0.0,N/A
3415.602054596,-0.176,0.045,0.991,-0.366,-8.911,0.427,0.0,N/A
3415.613055265,-0.176,0.045,0.991,0.0,-1.038,0.0,0.0,N/A
3415.623072446,-0.176,0.045,0.991,0.244,6.042,-0.305,0.0,N/A
3415.632971502,-0.176,0.045,0.991,0.549,12.634,-0.671,0.0,N/A
3415.642983432,-0.176,0.045,0.991,0.793,18.25,-0.916,0.0,N/A
3415.654049434,-0.176,0.045,0.991,0.977,22.888,-0.916,0.0,N/A
3415.664054364,-0.176,0.045,0.991,1.099,25.391,-1.221,0.0,N/A
3415.673959254,-0.176,0.045,0.991,1.099,26.062,-1.221,0.0,N/A
3415.685380794,-0.144,0.045,0.988,1.038,24.78,-1.221,0.0,N/A
3415.698196193,-0.144,0.045,0.988,0.977,21.973,-1.221,0.0,N/A
3415.705041825,-0.144,0.045,0.988,0.793,17.639,-1.099,0.0,N/A
3415.714967423,-0.144,0.045,0.988,0.549,11.658,-0.854,0.0,N/A
3415.726053549,-0.144,0.045,0.988,0.244,3.723,-0.366,0.0,N/A
3415.736053813,-0.144,0.045,0.988,-0.061,-4.211,-0.122,0.0,N/A
3415.746051452,-0.144,0.045,0.988,-0.427,-12.695,0.244,0.0,N/A
3415.756006799,-0.144,0.045,0.988,-0.793,-21.301,0.671,0.0,N/A
3415.767099926,-0.144,0.045,0.988,-1.16,-29.602,1.16,0.0,N/A
3415.777075106,-0.144,0.045,0.988,-1.526,-38.025,1.648,0.0,N/A
3415.787053204,-0.144,0.045,0.988,-1.831,-44.556,1.953,0.0,N/A
3415.797022551,-0.144,0.045,0.988,-2.075,-49.988,2.258,0.0,N/A
3415.808047137,-0.144,0.045,0.988,-2.319,-54.26,2.502,0.0,N/A
3415.818051484,-0.171,0.045,0.99,-2.563,-57.373,2.747,0.0,N/A
3415.828056997,-0.171,0.045,0.99,-2.686,-58.411,2.808,0.0,N/A
3415.838047344,-0.171,0.045,0.99,-2.625,-57.739,2.747,0.0,N/A
3415.848044108,-0.171,0.045,0.99,-2.502,-55.359,2.625,0.0,N/A
3415.859054111,-0.171,0.045,0.99,-2.197,-50.598,2.441,0.0,N/A
3415.869138373,-0.171,0.045,0.99,-1.953,-44.495,2.197,0.0,N/A
3415.879229344,-0.171,0.045,0.99,-1.587,-36.499,1.831,0.0,N/A
3415.890148348,-0.171,0.045,0.99,-1.16,-25.94,1.465,0.0,N/A
3415.900243986,-0.171,0.045,0.99,-0.671,-15.32,0.732,0.0,N/A
3415.910124084,-0.171,0.045,0.99,-0.122,-3.906,0.122,0.0,N/A
3415.921030546,-0.171,0.045,0.99,0.305,7.812,-0.427,0.0,N/A
3415.930982102,-0.171,0.045,0.99,0.916,20.508,-1.099,0.0,N/A
3415.941026698,-0.099,0.044,0.992,1.343,31.372,-1.709,0.0,N/A
3415.95209445,-0.099,0.044,0.992,1.77,41.26,-2.197,0.0,N/A
3415.962052714,-0.099,0.044,0.992,2.258,50.415,-2.502,0.0,N/A
3415.97205852,-0.099,0.044,0.992,2.625,56.824,-2.991,0.0,N/A
3415.982048283,-0.099,0.044,0.992,2.869,61.401,-3.296,0.0,N/A
3415.992513459,-0.099,0.044,0.992,2.991,63.599,-3.479,0.0,N/A
3416.00317084,-0.099,0.044,0.992,2.869,63.11,-3.479,0.0,N/A
3416.013080105,-0.099,0.044,0.992,2.686,59.326,-3.235,0.0,N/A
3416.023003952,-0.099,0.044,0.992,2.38,53.284,-2.93,0.0,N/A
3416.033075382,-0.099,0.044,0.992,2.014,44.861,-2.502,0.0,N/A
3416.04404601,-0.099,0.044,0.992,1.526,34.424,-1.953,0.0,N/A
3416.054050649,-0.099,0.044,0.992,0.916,21.118,-1.16,0.0,N/A
3416.063968372,-0.077,0.043,0.99,0.366,8.484,-0.488,0.0,N/A
3416.074009176,-0.077,0.043,0.99,-0.122,-3.845,0.0,0.0,N/A
3416.085053887,-0.077,0.043,0.99,-0.61,-15.442,0.61,0.0,N/A
3416.095080984,-0.077,0.043,0.99,-1.099,-26.978,1.16,0.0,N/A
3416.105256829,-0.077,0.043,0.99,-1.526,-36.133,1.648,0.0,N/A
3416.115109219,-0.077,0.043,0.99,-1.831,-43.579,2.075,0.0,N/A
3416.125048525,-0.077,0.043,0.99,-2.075,-49.133,2.319,0.0,N/A
3416.136113944,-0.077,0.043,0.99,-2.319,-52.979,2.563,0.0,N/A
3416.146106916,-0.077,0.043,0.99,-2.441,-53.955,2.686,0.0,N/A
3416.156065763,-0.077,0.043,0.99,-2.441,-52.551,2.563,0.0,N/A
3416.167109307,-0.077,0.043,0.99,-2.258,-48.889,2.38,0.0,N/A
3416.177125612,-0.077,0.043,0.99,-1.892,-42.297,1.953,0.0,N/A
3416.187110709,-0.077,0.043,0.99,-1.526,-34.424,1.526,0.0,N/A
3416.19706489,-0.164,0.045,0.995,-1.099,-25.33,1.099,0.0,N/A
3416.208106101,-0.164,0.045,0.995,-0.61,-15.32,0.671,0.0,N/A
3416.218108698,-0.164,0.045,0.995,-0.122,-3.296,0.061,0.0,N/A
3416.228125586,-0.164,0.045,0.995,0.305,7.629,-0.488,0.0,N/A
3416.238160849,-0.164,0.045,0.995,0.793,18.066,-0.977,0.0,N/A
3416.249133227,-0.164,0.045,0.995,1.221,27.222,-1.465,0.0,N/A
3416.259109575,-0.164,0.045,0.995,1.648,35.278,-1.892,0.0,N/A
3416.269163504,-0.164,0.045,0.995,1.953,40.771,-2.197,0.0,N/A
3416.279141602,-0.164,0.045,0.995,2.136,44.006,-2.441,0.0,N/A
3416.290062355,-0.164,0.045,0.995,2.136,44.8,-2.563,0.0,N/A
3416.300127951,-0.164,0.045,0.995,2.014,42.847,-2.502,0.0,N/A
3416.310134923,-0.164,0.045,0.995,1.77,38.513,-2.258,0.0,N/A
3416.325002174,-0.072,0.043,0.989,1.465,31.982,-1.892,0.0,N/A
3416.33152406,-0.072,0.043,0.989,1.099,23.682,-1.465,0.0,N/A
3416.340947705,-0.072,0.043,0.989,0.61,13.123,-0.916,0.0,N/A
3416.350970427,-0.072,0.043,0.989,0.122,2.747,-0.366,0.0,N/A
3416.360966024,-0.072,0.043,0.989,-0.244,-7.69,0.122,0.0,N/A
3416.37091758,-0.072,0.043,0.989,-0.671,-17.761,0.61,0.0,N/A
3416.381967832,-0.072,0.043,0.989,-1.099,-27.771,1.16,0.0,N/A
3416.391960804,-0.072,0.043,0.989,-1.526,-35.645,1.526,0.0,N/A
3416.402132274,-0.072,0.043,0.989,-1.831,-42.053,1.892,0.0,N/A
3416.41313411,-0.072,0.043,0.989,-2.136,-46.814,2.136,0.0,N/A
3416.423064666,-0.072,0.043,0.989,-2.319,-49.866,2.319,0.0,N/A
3416.433066097,-0.072,0.043,0.989,-2.319,-50.354,2.38,0.0,N/A
3416.443117401,-0.072,0.043,0.989,-2.136,-48.462,2.319,0.0,N/A
3416.453114457,-0.141,0.045,0.998,-1.953,-44.434,2.258,0.0,N/A
3416.464062627,-0.141,0.045,0.998,-1.648,-37.415,2.136,0.0,N/A
3416.479663411,-0.141,0.045,0.998,-1.282,-28.687,1.526,0.0,N/A
3416.486095465,-0.141,0.045,0.998,-0.793,-17.212,1.099,0.0,N/A
3416.498111706,-0.141,0.045,0.998,-0.061,-2.014,0.122,0.0,N/A
3416.508124803,-0.141,0.045,0.998,0.427,10.132,-0.427,0.0,N/A
3416.518077817,-0.141,0.045,0.998,0.916,21.973,-1.099,0.0,N/A
3416.529046987,-0.141,0.045,0.998,1.404,32.959,-1.648,0.0,N/A
3416.539013126,-0.141,0.045,0.998,1.953,43.579,-2.197,0.0,N/A
3416.549103513,-0.141,0.045,0.998,2.38,51.575,-2.625,0.0,N/A
3416.559062069,-0.141,0.045,0.998,2.686,57.8,-2.991,0.0,N/A
3416.570122821,-0.141,0.045,0.998,2.93,62.134,-3.296,0.0,N/A
3416.580103835,-0.062,0.043,0.989,2.991,63.965,-3.479,0.0,N/A
3416.590114599,-0.062,0.043,0.989,2.869,62.744,-3.479,0.0,N/A
3416.601088143,-0.062,0.043,0.989,2.625,58.838,-3.235,0.0,N/A
3416.616560013,-0.062,0.043,0.989,2.319,51.697,-2.93,0.0,N/A
3416.622855568,-0.062,0.043,0.989,1.892,41.504,-2.441,0.0,N/A
3416.635070723,-0.062,0.043,0.989,1.16,26.001,-1.526,0.0,N/A
3416.645426816,-0.062,0.043,0.989,0.549,12.39,-0.793,0.0,N/A
3416.655192291,-0.062,0.043,0.989,0.0,-1.526,-0.061,0.0,N/A
3416.665168763,-0.062,0.043,0.989,-0.61,-15.259,0.549,0.0,N/A
3416.676074767,-0.062,0.043,0.989,-1.221,-29.297,1.282,0.0,N/A
3416.686068031,-0.062,0.043,0.989,-1.709,-40.833,1.892,0.0,N/A
3416.696067419,-0.062,0.043,0.989,-2.136,-50.842,2.38,0.0,N/A
3416.706068558,-0.137,0.045,0.994,-2.502,-58.96,2.808,0.0,N/A
3416.717113268,-0.137,0.045,0.994,-2.93,-65.308,3.174,0.0,N/A
3416.727065699,-0.137,0.045,0.994,-3.113,-68.298,3.357,0.0,N/A
3416.737016964,-0.137,0.045,0.994,-3.174,-68.481,3.357,0.0,N/A
3416.748066341,-0.137,0.045,0.994,-2.93,-65.796,3.174,0.0,N/A
3416.758062521,-0.137,0.045,0.994,-2.625,-60.242,2.93,0.0,N/A
3416.768096326,-0.137,0.045,0.994,-2.38,-52.979,2.686,0.0,N/A
3416.779064621,-0.137,0.045,0.994,-1.892,-42.48,2.197,0.0,N/A
3416.789066343,-0.137,0.045,0.994,-1.404,-30.823,1.587,0.0,N/A
3416.800079553,-0.137,0.045,0.994,-0.732,-16.357,0.977,0.0,N/A
3416.810068151,-0.137,0.045,0.994,-0.061,-2.625,0.061,0.0,N/A
3416.821089236,-0.137,0.045,0.994,0.488,10.925,-0.61,0.0,N/A
3416.8310755,-0.116,0.044,0.993,1.16,24.902,-1.404,0.0,N/A
3416.842050503,-0.116,0.044,0.993,1.648,36.255,-2.014,0.0,N/A
3416.852069725,-0.116,0.044,0.993,2.075,46.509,-2.563,0.0,N/A
3416.86206328,-0.116,0.044,0.993,2.441,53.528,-2.93,0.0,N/A
3416.873066574,-0.116,0.044,0.993,2.747,58.228,-3.113,0.0,N/A
3416.883062755,-0.116,0.044,0.993,2.869,59.631,-3.235,0.0,N/A
3416.894064882,-0.116,0.044,0.993,2.808,57.8,-3.235,0.0,N/A
3416.904101021,-0.116,0.044,0.993,2.502,52.612,-2.991,0.0,N/A
3416.915112773,-0.116,0.044,0.993,2.014,44.189,-2.502,0.0,N/A
3416.925077162,-0.116,0.044,0.993,1.404,32.104,-1.709,0.0,N/A
3416.936113998,-0.116,0.044,0.993,0.793,19.409,-0.916,0.0,N/A
3416.946048054,-0.116,0.044,0.993,0.122,4.822,0.0,0.0,N/A
3416.956085067,-0.062,0.043,0.99,-0.427,-8.057,0.854,0.0,N/A
3416.967098861,-0.062,0.043,0.99,-0.916,-20.691,1.465,0.0,N/A
3416.977080167,-0.062,0.043,0.99,-1.343,-30.457,1.77,0.0,N/A
3416.988088419,-0.062,0.043,0.99,-1.709,-39.001,2.075,0.0,N/A
3416.998143807,-0.062,0.043,0.99,-2.014,-44.556,2.258,0.0,N/A
3417.009065727,-0.062,0.043,0.99,-2.258,-47.913,2.563,0.0,N/A
3417.019001533,-0.062,0.043,0.99,-2.258,-48.218,2.319,0.0,N/A
3417.030011827,-0.062,0.043,0.99,-2.075,-45.959,2.197,0.0,N/A
3417.040062257,-0.062,0.043,0.99,-1.831,-40.527,1.953,0.0,N/A
3417.050058438,-0.062,0.043,0.99,-1.465,-33.386,1.648,0.0,N/A
3417.061044815,-0.062,0.043,0.99,-0.977,-23.315,1.16,0.0,N/A
3417.071090579,-0.062,0.043,0.99,-0.488,-12.756,0.549,0.0,N/A
3417.082060623,-0.13,0.045,0.998,0.0,-0.488,0.122,0.0,N/A
3417.09210522,-0.13,0.045,0.998,0.427,10.62,-0.549,0.0,N/A
3417.108223707,-0.13,0.045,0.998,0.977,22.278,-0.977,0.0,N/A
3417.113047403,-0.13,0.045,0.998,1.404,31.86,-1.648,0.0,N/A
3417.123046292,-0.13,0.045,0.998,1.831,39.978,-2.075,0.0,N/A
3417.134094211,-0.13,0.045,0.998,2.197,46.57,-2.258,0.0,N/A
3417.144030017,-0.13,0.045,0.998,2.441,50.11,-2.747,0.0,N/A
3417.154106988,-0.13,0.045,0.998,2.441,50.72,-2.869,0.0,N/A
3417.164065544,-0.13,0.045,0.998,2.258,48.279,-2.747,0.0,N/A
3417.174063182,-0.13,0.045,0.998,1.953,43.03,-2.502,0.0,N/A
3417.184063154,-0.13,0.045,0.998,1.587,35.034,-2.075,0.0,N/A
3417.194079168,-0.13,0.045,0.998,1.099,24.902,-1.465,0.0,N/A
3417.204080307,-0.13,0.045,0.998,0.61,13.489,-0.793,0.0,N/A
3417.214063362,-0.07,0.043,0.99,0.061,1.892,-0.183,0.0,N/A
3417.22507424,-0.07,0.043,0.99,-0.366,-9.033,0.305,0.0,N/A
3417.235057587,-0.07,0.043,0.99,-0.793,-18.86,0.854,0.0,N/A
3417.245060476,-0.07,0.043,0.99,-1.099,-26.978,1.282,0.0,N/A
3417.255063948,-0.07,0.043,0.99,-1.465,-33.63,1.831,0.0,N/A
3417.265075294,-0.07,0.043,0.99,-1.648,-37.048,1.831,0.0,N/A
3417.275081391,-0.07,0.043,0.99,-1.77,-37.659,1.892,0.0,N/A
3417.285063572,-0.07,0.043,0.99,-1.648,-35.461,1.77,0.0,N/A
3417.295059461,-0.07,0.043,0.99,-1.465,-30.64,1.526,0.0,N/A
3417.305068474,-0.07,0.043,0.99,-1.099,-23.438,1.099,0.0,N/A
3417.315052988,-0.07,0.043,0.99,-0.671,-14.404,0.549,0.0,N/A
3417.325060252,-0.07,0.043,0.99,-0.122,-4.517,0.0,0.0,N/A
3417.335054974,-0.136,0.045,0.996,0.305,5.188,-0.427,0.0,N/A
3417.345065737,-0.136,0.045,0.996,0.732,14.221,-0.916,0.0,N/A
3417.356061157,-0.136,0.045,0.996,1.099,22.034,-1.282,0.0,N/A
3417.366061712,-0.136,0.045,0.996,1.404,28.076,-1.648,0.0,N/A
3417.376090267,-0.136,0.045,0.996,1.587,32.104,-1.953,0.0,N/A
3417.386058156,-0.136,0.045,0.996,1.587,32.715,-2.014,0.0,N/A
3417.396096336,-0.136,0.045,0.996,1.465,30.09,-1.892,0.0,N/A
3417.4060511,-0.136,0.045,0.996,1.16,24.292,-1.587,0.0,N/A
3417.416056906,-0.136,0.045,0.996,0.793,15.747,-1.099,0.0,N/A
3417.426074961,-0.136,0.045,0.996,0.244,5.371,-0.427,0.0,N/A
3417.436066183,-0.136,0.045,0.996,-0.183,-5.554,0.122,0.0,N/A
3417.446057113,-0.136,0.045,0.996,-0.671,-15.991,0.671,0.0,N/A
3417.456066127,-0.136,0.045,0.996,-1.038,-25.33,1.099,0.0,N/A
3417.466052391,-0.101,0.044,0.992,-1.465,-33.386,1.526,0.0,N/A
3417.477055685,-0.101,0.044,0.992,-1.77,-39.673,1.892,0.0,N/A
3417.487058574,-0.101,0.044,0.992,-2.075,-44.128,2.136,0.0,N/A
3417.497067879,-0.101,0.044,0.992,-2.136,-45.654,2.197,0.0,N/A
3417.507073393,-0.101,0.044,0.992,-2.014,-44.861,2.136,0.0,N/A
3417.517057031,-0.101,0.044,0.992,-1.831,-41.87,2.014,0.0,N/A
3417.527053212,-0.101,0.044,0.992,-1.587,-36.743,1.831,0.0,N/A
3417.537056976,-0.101,0.044,0.992,-1.282,-29.541,1.465,0.0,N/A
3417.547090197,-0.101,0.044,0.992,-0.916,-20.691,0.977,0.0,N/A
3417.557029795,-0.101,0.044,0.992,-0.427,-10.742,0.427,0.0,N/A
3417.567054558,-0.101,0.044,0.992,0.0,-0.061,-0.061,0.0,N/A
3417.577061822,-0.101,0.044,0.992,0.488,10.62,-0.671,0.0,N/A
3417.588054616,-0.102,0.044,0.996,0.916,20.752,-1.221,0.0,N/A
3417.59806188,-0.102,0.044,0.996,1.343,30.823,-1.587,0.0,N/A
3417.608073227,-0.102,0.044,0.996,1.77,38.33,-2.197,0.0,N/A
3417.618054824,-0.102,0.044,0.996,2.075,43.457,-2.441,0.0,N/A
3417.628117795,-0.102,0.044,0.996,2.197,46.021,-2.563,0.0,N/A
3417.638088018,-0.102,0.044,0.996,2.258,45.959,-2.625,0.0,N/A
3417.648088865,-0.102,0.044,0.996,2.075,42.908,-2.502,0.0,N/A
3417.658106628,-0.102,0.044,0.996,1.77,36.926,-2.136,0.0,N/A
3417.668023185,-0.102,0.044,0.996,1.343,28.687,-1.648,0.0,N/A
3417.67903377,-0.102,0.044,0.996,0.854,18.982,-1.16,0.0,N/A
3417.689113075,-0.102,0.044,0.996,0.366,8.301,-0.61,0.0,N/A
3417.699093505,-0.102,0.044,0.996,-0.122,-3.906,0.122,0.0,N/A
3417.709088227,-0.102,0.044,0.996,-0.61,-14.893,0.488,0.0,N/A
3417.719098699,-0.078,0.043,0.993,-1.099,-25.024,1.038,0.0,N/A
3417.729093421,-0.078,0.043,0.993,-1.526,-33.691,1.526,0.0,N/A
3417.73909106,-0.078,0.043,0.993,-1.892,-40.344,1.892,0.0,N/A
3417.749088407,-0.078,0.043,0.993,-2.136,-44.739,2.136,0.0,N/A
3417.759098004,-0.078,0.043,0.993,-2.136,-46.448,2.197,0.0,N/A
3417.769100601,-0.078,0.043,0.993,-2.014,-45.532,2.136,0.0,N/A
3417.77911574,-0.078,0.043,0.993,-1.831,-42.297,2.014,0.0,N/A
3417.789111337,-0.078,0.043,0.993,-1.587,-36.926,1.831,0.0,N/A
3417.80008984,-0.078,0.043,0.993,-1.282,-29.358,1.465,0.0,N/A
3417.810116936,-0.078,0.043,0.993,-0.854,-20.02,0.977,0.0,N/A
3417.820096784,-0.078,0.043,0.993,-0.305,-7.935,0.549,0.0,N/A
3417.830088589,-0.078,0.043,0.993,0.122,3.845,-0.183,0.0,N/A
3417.840113936,-0.078,0.043,0.993,0.671,15.869,-0.793,0.0,N/A
3417.850096991,-0.105,0.044,0.997,1.221,27.71,-1.465,0.0,N/A
3417.860105713,-0.105,0.044,0.997,1.709,38.452,-2.075,0.0,N/A
3417.870098102,-0.105,0.044,0.997,2.136,47.241,-2.563,0.0,N/A
3417.880088157,-0.105,0.044,0.997,2.502,53.711,-2.869,0.0,N/A
3417.890152587,-0.105,0.044,0.997,2.747,57.617,-3.113,0.0,N/A
3417.900087518,-0.105,0.044,0.997,2.808,58.472,-3.235,0.0,N/A
3417.910149323,-0.105,0.044,0.997,2.625,56.03,-3.174,0.0,N/A
3417.921069785,-0.105,0.044,0.997,2.319,50.293,-2.869,0.0,N/A
3417.931083465,-0.105,0.044,0.997,1.892,41.687,-2.319,0.0,N/A
3417.941113478,-0.105,0.044,0.997,1.343,29.968,-1.526,0.0,N/A
3417.951107909,-0.105,0.044,0.997,0.793,18.005,-1.038,0.0,N/A
3417.961104672,-0.105,0.044,0.997,0.244,5.249,-0.427,0.0,N/A
3417.971081311,-0.073,0.043,0.991,-0.244,-7.568,0.122,0.0,N/A
3417.981099658,-0.073,0.043,0.991,-0.793,-19.897,0.732,0.0,N/A
3417.991096714,-0.073,0.043,0.991,-1.282,-31.433,1.282,0.0,N/A
3418.001103686,-0.073,0.043,0.991,-1.709,-41.626,1.831,0.0,N/A
3418.011051741,-0.073,0.043,0.991,-2.136,-50.232,2.319,0.0,N/A
3418.022092369,-0.073,0.043,0.991,-2.563,-56.824,2.686,0.0,N/A
3418.032086216,-0.073,0.043,0.991,-2.808,-60.791,2.93,0.0,N/A
3418.042090563,-0.073,0.043,0.991,-2.808,-61.462,2.93,0.0,N/A
3418.052083826,-0.073,0.043,0.991,-2.625,-59.021,2.869,0.0,N/A
3418.062123756,-0.073,0.043,0.991,-2.441,-53.955,2.747,0.0,N/A
3418.072086395,-0.073,0.043,0.991,-2.075,-46.021,2.38,0.0,N/A
3418.082083743,-0.073,0.043,0.991,-1.587,-35.4,1.77,0.0,N/A
3418.092083715,-0.073,0.043,0.991,-1.038,-23.01,1.038,0.0,N/A
3418.102085145,-0.136,0.045,0.999,-0.427,-9.766,0.366,0.0,N/A
3418.112082784,-0.136,0.045,0.999,0.183,3.662,-0.305,0.0,N/A
3418.122087131,-0.136,0.045,0.999,0.793,16.602,-0.977,0.0,N/A
3418.132092061,-0.136,0.045,0.999,1.282,28.381,-1.587,0.0,N/A
3418.143088064,-0.136,0.045,0.999,1.77,39.307,-2.014,0.0,N/A
3418.153106119,-0.136,0.045,0.999,2.136,47.058,-2.625,0.0,N/A
3418.163081008,-0.136,0.045,0.999,2.441,52.185,-2.869,0.0,N/A
3418.173095855,-0.136,0.045,0.999,2.563,54.26,-2.93,0.0,N/A
3418.183095535,-0.136,0.045,0.999,2.563,53.65,-2.869,0.0,N/A
3418.19312059,-0.136,0.045,0.999,2.441,50.293,-2.747,0.0,N/A
3418.204109884,-0.136,0.045,0.999,2.075,43.945,-2.441,0.0,N/A
3418.214094107,-0.136,0.045,0.999,1.587,34.18,-1.892,0.0,N/A
3418.224039829,-0.046,0.042,0.988,1.099,23.804,-1.343,0.0,N/A
3418.234115342,-0.046,0.042,0.988,0.549,12.512,-0.793,0.0,N/A
3418.245093553,-0.046,0.042,0.988,0.061,0.671,-0.183,0.0,N/A
3418.255084775,-0.046,0.042,0.988,-0.488,-12.207,0.366,0.0,N/A
3418.265415785,-0.046,0.042,0.988,-0.977,-23.376,0.977,0.0,N/A
3418.279359338,-0.046,0.042,0.988,-1.648,-37.17,1.709,0.0,N/A
3418.292014323,-0.046,0.042,0.988,-2.136,-46.692,2.258,0.0,N/A
3418.302052503,-0.046,0.042,0.988,-2.38,-51.331,2.441,0.0,N/A
3418.31204985,-0.046,0.042,0.988,-2.38,-53.345,2.502,0.0,N/A
3418.322045738,-0.046,0.042,0.988,-2.319,-53.04,2.563,0.0,N/A
3418.333105324,-0.046,0.042,0.988,-2.258,-50.049,2.686,0.0,N/A
3418.343052213,-0.046,0.042,0.988,-2.014,-44.434,2.319,0.0,N/A
3418.353077851,-0.129,0.045,1.001,-1.648,-36.194,1.831,0.0,N/A
3418.363067907,-0.129,0.045,1.001,-1.16,-25.696,1.282,0.0,N/A
3418.374130992,-0.129,0.045,1.001,-0.61,-13.428,0.671,0.0,N/A
3418.384102089,-0.129,0.045,1.001,0.061,1.16,-0.061,0.0,N/A
3418.394086312,-0.129,0.045,1.001,0.671,14.404,-0.793,0.0,N/A
3418.404062659,-0.129,0.045,1.001,1.221,26.978,-1.465,0.0,N/A
3418.415097161,-0.129,0.045,1.001,1.709,38.269,-2.075,0.0,N/A
3418.424996217,-0.129,0.045,1.001,2.197,48.767,-2.625,0.0,N/A
3418.435055981,-0.129,0.045,1.001,2.563,55.969,-2.991,0.0,N/A
3418.445139952,-0.129,0.045,1.001,2.808,60.364,-3.174,0.0,N/A
3418.456621574,-0.129,0.045,1.001,2.93,62.256,-3.174,0.0,N/A
3418.470371754,-0.129,0.045,1.001,2.869,60.974,-3.357,0.0,N/A
3418.476948764,-0.042,0.042,0.988,2.625,56.519,-3.174,0.0,N/A
3418.487072985,-0.042,0.042,0.988,2.197,48.035,-2.686,0.0,N/A
3418.497045832,-0.042,0.042,0.988,1.709,37.903,-2.136,0.0,N/A
3418.507040554,-0.042,0.042,0.988,1.16,26.123,-1.526,0.0,N/A
3418.517083109,-0.042,0.042,0.988,0.61,13.123,-0.854,0.0,N/A
3418.527948155,-0.042,0.042,0.988,0.0,-1.709,-0.061,0.0,N/A
3418.538042334,-0.042,0.042,0.988,-0.549,-15.198,0.488,0.0,N/A
3418.554456277,-0.042,0.042,0.988,-1.099,-28.015,1.099,0.0,N/A
3418.563206179,-0.042,0.042,0.988,-1.77,-43.03,2.075,0.0,N/A
3418.570959468,-0.042,0.042,0.988,-2.319,-52.612,2.441,0.0,N/A
3418.581013106,-0.042,0.042,0.988,-2.747,-60.059,2.869,0.0,N/A
3418.592042358,-0.042,0.042,0.988,-2.991,-64.758,3.113,0.0,N/A
3418.602017831,-0.139,0.045,1.0,-2.991,-66.467,3.174,0.0,N/A
3418.612060969,-0.139,0.045,1.0,-2.93,-65.125,3.235,0.0,N/A
3418.622044024,-0.139,0.045,1.0,-2.808,-61.218,3.113,0.0,N/A
3418.632994527,-0.139,0.045,1.0,-2.502,-54.382,2.808,0.0,N/A
3418.643119331,-0.139,0.045,1.0,-1.953,-43.579,2.197,0.0,N/A
3418.653179969,-0.139,0.045,1.0,-1.404,-31.616,1.587,0.0,N/A
3418.663150775,-0.139,0.045,1.0,-0.793,-18.311,0.854,0.0,N/A
3418.674167486,-0.139,0.045,1.0,-0.122,-4.395,0.061,0.0,N/A
3418.684082,-0.139,0.045,1.0,0.488,10.437,-0.61,0.0,N/A
3418.69446726,-0.139,0.045,1.0,1.038,22.644,-1.221,0.0,N/A
3418.705007684,-0.139,0.045,1.0,1.526,33.447,-1.831,0.0,N/A
3418.715107572,-0.139,0.045,1.0,2.014,43.213,-2.441,0.0,N/A
3418.725063378,-0.139,0.045,1.0,2.258,49.5,-2.869,0.0,N/A
3418.735013475,-0.056,0.042,0.99,2.441,52.856,-3.052,0.0,N/A
3418.746080935,-0.056,0.042,0.99,2.502,53.223,-2.991,0.0,N/A
3418.756042408,-0.056,0.042,0.99,2.441,50.171,-2.747,0.0,N/A
3418.766046755,-0.056,0.042,0.99,2.197,44.495,-2.441,0.0,N/A
3418.775995102,-0.056,0.042,0.99,1.831,36.316,-2.014,0.0,N/A
3418.787010938,-0.056,0.042,0.99,1.343,25.94,-1.526,0.0,N/A
3418.797022577,-0.056,0.042,0.99,0.671,12.939,-0.854,0.0,N/A
3418.806994841,-0.056,0.042,0.99,0.061,0.366,-0.244,0.0,N/A
3418.816991604,-0.056,0.042,0.99,-0.488,-11.963,0.305,0.0,N/A
3418.826991868,-0.056,0.042,0.99,-1.038,-23.621,0.916,0.0,N/A
3418.838061953,-0.056,0.042,0.99,-1.648,-34.79,1.648,0.0,N/A
3418.848045592,-0.056,0.042,0.99,-1.953,-42.603,1.892,0.0,N/A
3418.858073856,-0.084,0.044,0.999,-2.136,-47.791,2.075,0.0,N/A
3418.868367824,-0.084,0.044,0.999,-2.258,-50.415,2.319,0.0,N/A
3418.880385816,-0.084,0.044,0.999,-2.258,-49.805,2.502,0.0,N/A
3418.8930093,-0.084,0.044,0.999,-2.075,-44.922,2.319,0.0,N/A
3418.903062063,-0.084,0.044,0.999,-1.709,-37.048,1.892,0.0,N/A
3418.913038119,-0.084,0.044,0.999,-1.282,-27.588,1.465,0.0,N/A
3418.923989205,-0.084,0.044,0.999,-0.732,-16.357,0.916,0.0,N/A
3418.933992094,-0.084,0.044,0.999,-0.122,-2.625,0.244,0.0,N/A
3418.944005774,-0.084,0.044,0.999,0.427,10.498,-0.305,0.0,N/A
3418.954010704,-0.084,0.044,0.999,1.038,23.743,-0.977,0.0,N/A
3418.965041998,-0.084,0.044,0.999,1.648,36.499,-1.709,0.0,N/A
3418.97506822,-0.084,0.044,0.999,2.197,49.377,-2.441,0.0,N/A
3418.985061775,-0.062,0.043,0.993,2.686,59.509,-2.991,0.0,N/A
3418.995039289,-0.062,0.043,0.993,3.113,67.688,-3.418,0.0,N/A
3419.0060875,-0.062,0.043,0.993,3.418,73.73,-3.723,0.0,N/A
3419.016041097,-0.062,0.043,0.993,3.601,77.576,-3.967,0.0,N/A
3419.026094444,-0.062,0.043,0.993,3.54,77.82,-4.028,0.0,N/A
3419.035992042,-0.062,0.043,0.993,3.296,74.707,-3.723,0.0,N/A
3419.047016044,-0.062,0.043,0.993,2.991,68.42,-3.296,0.0,N/A
3419.056946309,-0.062,0.043,0.993,2.502,58.228,-2.686,0.0,N/A
3419.066990322,-0.062,0.043,0.993,1.953,46.387,-2.136,0.0,N/A
3419.076992044,-0.062,0.043,0.993,1.404,32.654,-1.526,0.0,N/A
3419.088029754,-0.062,0.043,0.993,0.732,17.334,-0.854,0.0,N/A
3419.098436014,-0.062,0.043,0.993,0.0,-0.61,-0.061,0.0,N/A
3419.110019426,-0.096,0.044,0.992,-0.793,-20.569,0.793,0.0,N/A
3419.120078314,-0.096,0.044,0.992,-1.465,-36.804,1.526,0.0,N/A
3419.130057287,-0.096,0.044,0.992,-2.136,-52.185,2.319,0.0,N/A
3419.141006331,-0.096,0.044,0.992,-2.747,-65.918,3.052,0.0,N/A
3419.151006887,-0.096,0.044,0.992,-3.357,-78.735,3.662,0.0,N/A
3419.161045942,-0.096,0.044,0.992,-3.906,-88.074,4.211,0.0,N/A
3419.171063413,-0.096,0.044,0.992,-4.272,-94.238,4.639,0.0,N/A
3419.182029666,-0.096,0.044,0.992,-4.333,-96.619,4.7,0.0,N/A
3419.192138429,-0.096,0.044,0.992,-4.333,-95.337,4.944,0.0,N/A
3419.202994725,-0.096,0.044,0.992,-4.089,-89.478,4.578,0.0,N/A
3419.214027769,-0.096,0.044,0.992,-3.601,-79.834,4.089,0.0,N/A
3419.224028616,-0.096,0.044,0.992,-2.93,-65.979,3.296,0.0,N/A
3419.233983963,-0.096,0.044,0.992,-2.258,-51.392,2.502,0.0,N/A
3419.244971216,-0.159,0.045,0.998,-1.526,-35.217,1.648,0.0,N/A
3419.255059854,-0.159,0.045,0.998,-0.671,-16.541,0.793,0.0,N/A
3419.265069742,-0.159,0.045,0.998,0.061,0.061,-0.183,0.0,N/A
3419.275038215,-0.159,0.045,0.998,0.793,15.564,-0.977,0.0,N/A
3419.285065311,-0.159,0.045,0.998,1.404,29.48,-1.709,0.0,N/A
3419.296005606,-0.159,0.045,0.998,1.892,41.199,-2.38,0.0,N/A
3419.306056911,-0.159,0.045,0.998,2.38,50.781,-2.869,0.0,N/A
3419.31603355,-0.159,0.045,0.998,2.625,55.847,-3.113,0.0,N/A
3419.326030897,-0.159,0.045,0.998,2.686,57.434,-3.174,0.0,N/A
3419.336999192,-0.159,0.045,0.998,2.625,55.237,-2.93,0.0,N/A
3419.346983997,-0.159,0.045,0.998,2.319,49.561,-2.808,0.0,N/A
3419.357001177,-0.159,0.045,0.998,1.892,40.771,-2.319,0.0,N/A
3419.366981025,0.004,0.041,0.983,1.404,29.419,-1.831,0.0,N/A
3419.378075318,0.004,0.041,0.983,0.793,16.113,-1.221,0.0,N/A
3419.388088706,0.004,0.041,0.983,0.122,0.305,-0.61,0.0,N/A
3419.398030054,0.004,0.041,0.983,-0.427,-14.343,0.0,0.0,N/A
3419.408035276,0.004,0.041,0.983,-1.099,-28.87,0.732,0.0,N/A
3419.419060153,0.004,0.041,0.983,-1.77,-42.664,1.526,0.0,N/A
3419.428992751,0.004,0.041,0.983,-2.441,-55.847,2.38,0.0,N/A
3419.445016739,0.004,0.041,0.983,-2.869,-65.247,2.869,0.0,N/A
3419.451403585,0.004,0.041,0.983,-3.235,-72.327,3.296,0.0,N/A
3419.460109155,0.004,0.041,0.983,-3.418,-76.05,3.479,0.0,N/A
3419.470982367,0.004,0.041,0.983,-3.418,-76.294,3.479,0.0,N/A
3419.481074796,0.004,0.041,0.983,-2.93,-70.007,2.808,0.0,N/A
3419.491048519,-0.081,0.044,1.011,-2.197,-58.411,1.77,0.0,N/A
3419.501086407,-0.081,0.044,1.011,-1.465,-42.664,0.916,0.0,N/A
3419.510980213,-0.081,0.044,1.011,-0.793,-24.048,0.244,0.0,N/A
3419.522042424,-0.081,0.044,1.011,-0.122,-1.404,0.183,0.0,N/A
3419.532096353,-0.081,0.044,1.011,0.427,17.395,0.061,0.0,N/A
3419.542063076,-0.081,0.044,1.011,0.977,33.325,0.0,0.0,N/A
3419.558148897,-0.081,0.044,1.011,1.587,47.241,-0.549,0.0,N/A
3419.568956485,-0.081,0.044,1.011,2.563,61.768,-1.892,0.0,N/A
3419.574384049,-0.081,0.044,1.011,3.296,74.829,-3.296,0.0,N/A
3419.585071764,-0.081,0.044,1.011,3.784,84.473,-4.089,0.0,N/A
3419.595069402,-0.081,0.044,1.011,4.089,90.698,-4.517,0.0,N/A
3419.604985667,-0.081,0.044,1.011,4.333,94.666,-5.005,0.0,N/A
3419.616105627,-0.081,0.044,1.011,4.395,95.52,-5.127,0.0,N/A
3419.626067391,0.036,0.041,0.978,4.272,91.98,-4.7,0.0,N/A
3419.636025947,0.036,0.041,0.978,3.906,85.205,-4.211,0.0,N/A
3419.645978669,0.036,0.041,0.978,3.418,75.256,-3.601,0.0,N/A
3419.657022796,0.036,0.041,0.978,2.747,62.256,-2.808,0.0,N/A
3419.667069726,0.036,0.041,0.978,1.892,44.8,-1.465,0.0,N/A
3419.683171005,0.036,0.041,0.978,1.099,27.954,-0.61,0.0,N/A
3419.69401476,0.036,0.041,0.978,0.0,-0.122,0.305,0.0,N/A
3419.705076386,0.036,0.041,0.978,-0.671,-16.418,0.854,0.0,N/A
3419.715018609,0.036,0.041,0.978,-1.343,-31.738,1.526,0.0,N/A
3419.725026748,0.036,0.041,0.978,-2.014,-46.814,2.136,0.0,N/A
3419.735068428,0.036,0.041,0.978,-2.563,-58.655,2.747,0.0,N/A
3419.745085024,-0.115,0.045,1.002,-3.113,-68.237,3.235,0.0,N/A
3419.756070236,-0.115,0.045,1.002,-3.418,-74.646,3.54,0.0,N/A
3419.766022666,-0.115,0.045,1.002,-3.479,-78.186,3.662,0.0,N/A
3419.776077763,-0.115,0.045,1.002,-3.54,-78.735,3.845,0.0,N/A
3419.786394481,-0.115,0.045,1.002,-3.479,-76.294,3.784,0.0,N/A
3419.800832404,-0.115,0.045,1.002,-3.174,-70.801,3.418,0.0,N/A
3419.80700721,-0.115,0.045,1.002,-2.747,-62.378,3.052,0.0,N/A
3419.817018849,-0.115,0.045,1.002,-2.319,-53.528,2.441,0.0,N/A
3419.827019987,-0.115,0.045,1.002,-1.892,-43.701,1.892,0.0,N/A
3419.837023168,-0.115,0.045,1.002,-1.465,-33.875,1.404,0.0,N/A
3419.848115419,-0.115,0.045,1.002,-1.038,-24.475,0.977,0.0,N/A
3419.858080975,-0.115,0.045,1.002,-0.61,-14.771,0.549,0.0,N/A
3419.868354819,-0.115,0.045,1.002,-0.244,-6.165,0.183,0.0,N/A
3419.8813108,-0.081,0.043,0.997,0.244,5.249,-0.244,0.0,N/A
3419.890986442,-0.081,0.043,0.997,0.671,14.282,-0.671,0.0,N/A
3419.900979414,-0.081,0.043,0.997,1.038,23.376,-1.16,0.0,N/A
3419.911038011,-0.081,0.043,0.997,1.465,32.654,-1.648,0.0,N/A
3419.921040899,-0.081,0.043,0.997,1.831,41.443,-2.136,0.0,N/A
3419.930980789,-0.081,0.043,0.997,2.197,49.255,-2.563,0.0,N/A
3419.940974344,-0.081,0.043,0.997,2.502,55.786,-2.869,0.0,N/A
3419.951080773,-0.081,0.043,0.997,2.808,60.608,-3.174,0.0,N/A
3419.961097662,-0.081,0.043,0.997,2.93,63.232,-3.418,0.0,N/A
3419.97208404,-0.081,0.043,0.997,2.869,62.866,-3.296,0.0,N/A
3419.98209072,-0.081,0.043,0.997,2.747,59.326,-3.235,0.0,N/A
3419.992067942,-0.081,0.043,0.997,2.502,53.04,-2.869,0.0,N/A
3420.002085706,0.007,0.041,0.986,2.136,44.312,-2.502,0.0,N/A
3420.012027637,0.007,0.041,0.986,1.587,33.081,-1.892,0.0,N/A
3420.022046858,0.007,0.041,0.986,0.977,20.081,-1.099,0.0,N/A
3420.032034872,0.007,0.041,0.986,0.305,6.531,-0.305,0.0,N/A
3420.042088219,0.007,0.041,0.986,-0.305,-6.775,0.366,0.0,N/A
3420.052069233,0.007,0.041,0.986,-0.854,-18.982,0.977,0.0,N/A
3420.063066402,0.007,0.041,0.986,-1.404,-29.419,1.404,0.0,N/A
3420.073067832,0.007,0.041,0.986,-1.77,-38.635,1.953,0.0,N/A
3420.083107179,0.007,0.041,0.986,-2.014,-44.922,2.197,0.0,N/A
3420.093056693,0.007,0.041,0.986,-2.136,-49.255,2.319,0.0,N/A
3420.103025749,0.007,0.041,0.986,-2.258,-51.331,2.502,0.0,N/A
3420.113162219,0.007,0.041,0.986,-2.258,-50.72,2.441,0.0,N/A
3420.123098317,0.007,0.041,0.986,-2.136,-47.607,2.258,0.0,N/A
3420.133046373,-0.106,0.044,1.006,-1.892,-42.603,1.892,0.0,N/A
3420.143077553,-0.106,0.044,1.006,-1.587,-36.377,1.587,0.0,N/A
3420.154050514,-0.106,0.044,1.006,-1.221,-29.358,1.221,0.0,N/A
3420.164041736,-0.106,0.044,1.006,-0.916,-21.851,0.793,0.0,N/A
3420.174058041,-0.106,0.044,1.006,-0.549,-14.526,0.427,0.0,N/A
3420.184023597,-0.106,0.044,1.006,-0.244,-7.202,0.244,0.0,N/A
3420.194047777,-0.106,0.044,1.006,0.0,-1.282,-0.061,0.0,N/A
3420.204049791,-0.106,0.044,1.006,0.183,4.089,-0.305,0.0,N/A
3420.214028472,-0.106,0.044,1.006,0.427,9.277,-0.549,0.0,N/A
3420.224016194,-0.106,0.044,1.006,0.61,14.038,-0.732,0.0,N/A
3420.233980583,-0.106,0.044,1.006,0.793,18.616,-0.977,0.0,N/A
3420.244027804,-0.106,0.044,1.006,0.977,22.888,-1.221,0.0,N/A
3420.254021943,-0.028,0.042,0.992,1.16,26.672,-1.465,0.0,N/A
3420.264025707,-0.028,0.042,0.992,1.343,29.785,-1.648,0.0,N/A
3420.275026959,-0.028,0.042,0.992,1.465,32.043,-1.831,0.0,N/A
3420.285027515,-0.028,0.042,0.992,1.526,32.959,-1.892,0.0,N/A
3420.295059278,-0.028,0.042,0.992,1.465,31.982,-1.709,0.0,N/A
3420.30506275,-0.028,0.042,0.992,1.343,29.053,-1.77,0.0,N/A
3420.315024514,-0.028,0.042,0.992,1.099,24.17,-1.465,0.0,N/A
3420.325026236,-0.028,0.042,0.992,0.793,17.456,-1.099,0.0,N/A
3420.335199165,-0.028,0.042,0.992,0.427,8.85,-0.671,0.0,N/A
3420.345355468,-0.028,0.042,0.992,0.0,-0.977,-0.122,0.0,N/A
3420.355120651,-0.028,0.042,0.992,-0.427,-11.23,0.366,0.0,N/A
3420.365155623,-0.028,0.042,0.992,-0.854,-20.813,0.854,0.0,N/A
3420.37619275,-0.028,0.042,0.992,-1.221,-29.541,1.343,0.0,N/A
3420.386326596,-0.049,0.043,1.0,-1.648,-37.048,1.77,0.0,N/A
3420.396213694,-0.049,0.043,1.0,-1.953,-42.908,2.258,0.0,N/A
3420.406335289,-0.049,0.043,1.0,-2.014,-45.593,2.136,0.0,N/A
3420.417716579,-0.049,0.043,1.0,-2.014,-45.654,2.136,0.0,N/A
3420.427015184,-0.049,0.043,1.0,-1.892,-43.152,2.075,0.0,N/A
3420.438129019,-0.049,0.043,1.0,-1.709,-37.964,1.831,0.0,N/A
3420.448108575,-0.049,0.043,1.0,-1.282,-29.541,1.404,0.0,N/A
3420.458066839,-0.049,0.043,1.0,-0.854,-20.02,0.916,0.0,N/A
3420.468014895,-0.049,0.043,1.0,-0.366,-9.033,0.427,0.0,N/A
3420.479032189,-0.049,0.043,1.0,0.122,3.174,-0.061,0.0,N/A
3420.489170409,-0.049,0.043,1.0,0.732,17.639,-0.854,0.0,N/A
3420.499103299,-0.049,0.043,1.0,1.343,30.884,-1.587,0.0,N/A
3420.509065354,-0.039,0.042,0.998,1.953,43.518,-2.258,0.0,N/A
3420.520076815,-0.039,0.042,0.998,2.502,55.786,-2.93,0.0,N/A
3420.530017871,-0.039,0.042,0.997,2.93,65.063,-3.418,0.0,N/A
3420.540060134,-0.039,0.042,0.998,3.296,72.205,-3.845,0.0,N/A
3420.551070429,-0.039,0.042,0.998,3.479,76.233,-4.15,0.0,N/A
3420.561073901,-0.039,0.042,0.998,3.54,76.355,-4.028,0.0,N/A
3420.571355036,-0.039,0.042,0.998,3.418,72.876,-3.906,0.0,N/A
3420.581403133,-0.039,0.042,0.998,3.113,65.674,-3.601,0.0,N/A
3420.592059347,-0.039,0.042,0.998,2.502,54.626,-2.991,0.0,N/A
3420.602061653,-0.039,0.042,0.998,1.77,39.185,-2.014,0.0,N/A
3420.612060458,-0.039,0.042,0.998,1.038,23.376,-1.038,0.0,N/A
3420.622718423,-0.039,0.042,0.997,0.244,6.47,0.0,0.0,N/A
3420.633299388,-0.043,0.043,0.992,-0.549,-12.512,1.16,0.0,N/A
3420.644016852,-0.043,0.043,0.992,-1.343,-29.419,2.319,0.0,N/A
3420.654037824,-0.043,0.043,0.992,-2.197,-46.387,3.418,0.0,N/A
3420.664080379,-0.043,0.043,0.992,-2.869,-59.509,4.15,0.0,N/A
3420.674034852,-0.043,0.043,0.992,-3.296,-69.458,4.456,0.0,N/A
3420.685020938,-0.043,0.043,0.992,-3.479,-75.745,4.333,0.0,N/A
3420.695843401,-0.043,0.043,0.992,-3.54,-79.59,4.211,0.0,N/A
3420.708237638,-0.043,0.043,0.992,-3.601,-79.895,4.211,0.0,N/A
3420.719047851,-0.043,0.043,0.992,-3.418,-76.599,3.723,0.0,N/A
3420.729037323,-0.043,0.043,0.992,-3.113,-70.129,3.357,0.0,N/A
3420.739044003,-0.043,0.043,0.992,-2.808,-61.707,2.991,0.0,N/A
3420.749026475,-0.043,0.043,0.992,-2.258,-50.72,2.38,0.0,N/A
3420.75997202,-0.043,0.043,0.992,-1.587,-37.231,1.587,0.0,N/A
3420.770021867,-0.118,0.044,1.004,-0.793,-20.508,0.61,0.0,N/A
3420.780022422,-0.118,0.044,1.004,-0.183,-5.249,0.0,0.0,N/A
3420.789975144,-0.118,0.044,1.004,0.366,9.277,-0.427,0.0,N/A
3420.801055438,-0.118,0.044,1.004,1.038,23.621,-1.221,0.0,N/A
3420.810980452,-0.118,0.044,1.004,1.77,37.72,-2.136,0.0,N/A
3420.821033799,-0.118,0.044,1.004,2.258,48.035,-2.625,0.0,N/A
3420.830972813,-0.118,0.044,1.004,2.563,55.908,-3.052,0.0,N/A
3420.84205719,-0.118,0.044,1.004,2.808,61.157,-3.296,0.0,N/A
3420.852065912,-0.118,0.044,1.004,2.93,63.232,-3.357,0.0,N/A
3420.862043426,-0.118,0.044,1.004,2.869,61.584,-3.235,0.0,N/A
3420.87201919,-0.118,0.044,1.004,2.625,56.763,-3.052,0.0,N/A
3420.882982234,-0.118,0.044,1.004,2.258,48.645,-2.747,0.0,N/A
3420.893017498,0.017,0.041,0.982,1.709,36.194,-2.136,0.0,N/A
3420.903032344,0.017,0.041,0.982,1.099,22.766,-1.465,0.0,N/A
3420.913049233,0.017,0.041,0.982,0.427,8.362,-0.732,0.0,N/A
3420.924066819,0.017,0.041,0.982,-0.183,-6.042,0.0,0.0,N/A
3420.933972875,0.017,0.041,0.982,-0.916,-21.24,0.793,0.0,N/A
3420.944020388,0.017,0.041,0.982,-1.404,-33.63,1.465,0.0,N/A
3420.954020944,0.017,0.041,0.982,-1.892,-44.189,2.014,0.0,N/A
3420.976331154,0.017,0.041,0.982,-2.686,-59.265,2.686,0.0,N/A
3420.988124272,0.017,0.041,0.982,-2.747,-61.157,2.869,0.0,N/A
3420.999057859,0.017,0.041,0.982,-2.686,-59.265,2.808,0.0,N/A
3421.009077664,0.017,0.041,0.982,-2.441,-54.016,2.625,0.0,N/A
3421.019089011,-0.084,0.044,1.009,-2.075,-46.326,2.258,0.0,N/A
3421.029052817,-0.084,0.044,1.009,-1.648,-36.072,1.648,0.0,N/A
3421.040056403,-0.084,0.044,1.009,-1.038,-23.621,0.977,0.0,N/A
3421.050080874,-0.084,0.044,1.009,-0.366,-8.484,0.244,0.0,N/A
3421.060107679,-0.084,0.044,1.009,0.183,5.127,-0.244,0.0,N/A
3421.070048152,-0.084,0.044,1.009,0.793,18.799,-0.916,0.0,N/A
3421.081423317,-0.084,0.044,1.009,1.465,31.738,-1.709,0.0,N/A
3421.091617829,-0.084,0.044,1.009,2.014,43.701,-2.441,0.0,N/A
3421.101026599,-0.084,0.044,1.009,2.38,51.575,-2.869,0.0,N/A
3421.111074696,-0.084,0.044,1.009,2.625,56.519,-3.113,0.0,N/A
3421.121050168,-0.084,0.044,1.009,2.747,58.167,-3.174,0.0,N/A
3421.13211617,-0.084,0.044,1.009,2.625,55.603,-3.052,0.0,N/A
3421.142081725,0.01,0.041,0.985,2.319,48.95,-2.747,0.0,N/A
3421.152378611,0.01,0.041,0.985,1.831,38.94,-2.197,0.0,N/A
3421.163445196,0.01,0.041,0.985,1.16,26.733,-1.404,0.0,N/A
3421.173060464,0.01,0.041,0.985,0.488,12.39,-0.244,0.0,N/A
3421.183059561,0.01,0.041,0.985,0.0,-0.732,0.305,0.0,N/A
3421.193002659,0.01,0.041,0.985,-0.549,-13.794,1.038,0.0,N/A
3421.203057755,0.01,0.041,0.985,-1.16,-26.123,1.648,0.0,N/A
3421.214049674,0.01,0.041,0.985,-1.709,-37.842,2.258,0.0,N/A
3421.224052563,0.01,0.041,0.985,-2.075,-46.143,2.319,0.0,N/A
3421.234051077,0.01,0.041,0.985,-2.319,-51.697,2.502,0.0,N/A
3421.245088496,0.01,0.041,0.985,-2.441,-54.565,2.563,0.0,N/A
3421.25505376,0.01,0.041,0.985,-2.441,-54.688,2.869,0.0,N/A
3421.265077356,0.01,0.041,0.985,-2.319,-51.575,2.563,0.0,N/A
3421.275399033,-0.066,0.044,1.008,-2.014,-45.044,2.197,0.0,N/A
3421.288063934,-0.066,0.044,1.008,-1.404,-31.982,1.404,0.0,N/A
3421.298023073,-0.066,0.044,1.008,-0.793,-19.409,0.732,0.0,N/A
3421.308122794,-0.066,0.044,1.008,-0.244,-5.798,0.122,0.0,N/A
3421.319109172,-0.066,0.044,1.008,0.305,7.935,-0.366,0.0,N/A
3421.329057228,-0.066,0.044,1.008,1.038,23.193,-1.16,0.0,N/A
3421.339087533,-0.066,0.044,1.008,1.648,35.522,-1.892,0.0,N/A
3421.349012256,-0.066,0.044,1.008,2.075,45.41,-2.441,0.0,N/A
3421.360151757,-0.066,0.044,1.008,2.441,52.795,-2.869,0.0,N/A
3421.370042938,-0.066,0.044,1.008,2.686,57.678,-3.174,0.0,N/A
3421.380001952,-0.066,0.044,1.008,2.747,58.716,-3.235,0.0,N/A
3421.390055465,-0.066,0.044,1.008,2.625,56.396,-3.113,0.0,N/A
3421.401373756,0.008,0.041,0.986,2.38,50.842,-2.808,0.0,N/A
3421.411027815,0.008,0.041,0.986,1.892,41.199,-2.258,0.0,N/A
3421.421004746,0.008,0.041,0.986,1.343,29.968,-1.587,0.0,N/A
3421.430975552,0.008,0.041,0.986,0.732,17.334,-0.793,0.0,N/A
3421.442061678,0.008,0.041,0.986,0.122,4.15,0.0,0.0,N/A
3421.452076817,0.008,0.041,0.986,-0.427,-10.193,0.854,0.0,N/A
3421.462368744,0.008,0.041,0.986,-0.977,-22.583,1.526,0.0,N/A
3421.472184676,0.008,0.041,0.986,-1.465,-33.752,2.014,0.0,N/A
3421.483043097,0.008,0.041,0.986,-1.892,-42.969,2.38,0.0,N/A
3421.492934362,0.008,0.041,0.986,-2.258,-50.232,2.563,0.0,N/A
3421.502962917,0.008,0.041,0.986,-2.441,-53.833,2.625,0.0,N/A
3421.513982253,0.008,0.041,0.986,-2.441,-54.688,2.625,0.0,N/A
3421.524030932,-0.069,0.044,1.007,-2.38,-52.979,2.563,0.0,N/A
3421.533962364,-0.069,0.044,1.007,-2.136,-47.852,2.319,0.0,N/A
3421.543958252,-0.069,0.044,1.007,-1.831,-40.649,1.831,0.0,N/A
3421.553992057,-0.069,0.044,1.007,-1.404,-31.616,1.343,0.0,N/A
3421.565006143,-0.069,0.044,1.007,-0.916,-21.301,0.793,0.0,N/A
3421.575066781,-0.069,0.044,1.007,-0.366,-9.155,0.122,0.0,N/A
3421.585006962,-0.069,0.044,1.007,0.122,1.404,-0.305,0.0,N/A
3421.595006643,-0.069,0.044,1.007,0.549,10.681,-0.732,0.0,N/A
3421.606010228,-0.069,0.044,1.007,0.916,18.372,-1.16,0.0,N/A
3421.6160277,-0.069,0.044,1.007,1.16,24.414,-1.404,0.0,N/A
3421.626029131,-0.069,0.044,1.007,1.282,28.015,-1.526,0.0,N/A
3421.63596027,-0.069,0.044,1.007,1.343,30.64,-1.587,0.0,N/A
3421.646958606,-0.069,0.044,1.007,1.465,33.081,-1.648,0.0,N/A
3421.656965286,-0.0,0.042,0.99,1.587,36.011,-1.648,0.0,N/A
3421.666967008,-0.0,0.042,0.99,1.709,38.635,-1.953,0.0,N/A
3421.676962022,-0.0,0.042,0.99,1.831,41.138,-2.014,0.0,N/A
3421.687062035,-0.0,0.042,0.99,1.953,43.396,-2.258,0.0,N/A
3421.697963538,-0.0,0.042,0.99,2.075,44.983,-2.441,0.0,N/A
3421.708046926,-0.0,0.042,0.99,2.014,45.471,-2.502,0.0,N/A
3421.718051565,-0.0,0.042,0.99,2.014,44.556,-2.441,0.0,N/A
3421.728998859,-0.0,0.042,0.99,1.892,41.992,-2.319,0.0,N/A
3421.739046081,-0.0,0.042,0.99,1.77,37.598,-2.014,0.0,N/A
3421.748962637,-0.0,0.042,0.99,1.465,30.762,-1.709,0.0,N/A
3421.7590504,-0.0,0.042,0.99,1.16,22.583,-1.282,0.0,N/A
3421.769001664,-0.0,0.042,0.99,0.671,12.573,-0.793,0.0,N/A
3421.780069999,-0.032,0.042,0.997,0.061,0.122,0.0,0.0,N/A
3421.790051013,-0.032,0.042,0.997,-0.488,-11.475,0.366,0.0,N/A
3421.800042819,-0.032,0.042,0.997,-1.038,-22.522,0.916,0.0,N/A
3421.809975125,-0.032,0.042,0.997,-1.404,-32.288,1.343,0.0,N/A
3421.82134854,-0.032,0.042,0.997,-1.77,-41.687,1.953,0.0,N/A
3421.83111664,-0.032,0.042,0.997,-2.136,-49.133,2.197,0.0,N/A
3421.84110407,-0.032,0.042,0.997,-2.441,-54.81,2.563,0.0,N/A
3421.852070906,-0.032,0.042,0.997,-2.625,-58.289,2.686,0.0,N/A
3421.862046962,-0.032,0.042,0.997,-2.625,-59.265,2.869,0.0,N/A
3421.872040809,-0.032,0.042,0.997,-2.563,-58.044,2.686,0.0,N/A
3421.882050989,-0.032,0.042,0.997,-2.441,-54.993,2.625,0.0,N/A
3421.893054283,-0.032,0.042,0.997,-2.197,-49.622,2.38,0.0,N/A
3421.903002631,-0.093,0.044,1.006,-1.831,-41.077,2.075,0.0,N/A
3421.912981603,-0.093,0.044,1.006,-1.343,-31.128,1.343,0.0,N/A
3421.923043991,-0.093,0.044,1.006,-0.793,-19.531,0.732,0.0,N/A
3421.934007036,-0.093,0.044,1.006,-0.244,-7.385,0.061,0.0,N/A
3421.94400205,-0.093,0.044,1.006,0.305,5.554,-0.305,0.0,N/A
3421.954043146,-0.093,0.044,1.006,0.793,16.357,-1.038,0.0,N/A
3421.96404516,-0.093,0.044,1.006,1.221,25.391,-1.465,0.0,N/A
3421.975067996,-0.093,0.044,1.006,1.526,32.166,-1.77,0.0,N/A
3421.985076718,-0.093,0.044,1.006,1.709,36.926,-1.831,0.0,N/A
3422.000925708,-0.093,0.044,1.006,1.831,38.513,-2.075,0.0,N/A
3422.009727818,-0.093,0.044,1.006,1.77,37.354,-2.014,0.0,N/A
3422.015977582,-0.093,0.044,1.006,1.587,32.898,-1.831,0.0,N/A
3422.026077886,-0.093,0.044,1.006,1.221,26.245,-1.526,0.0,N/A
3422.036956932,0.012,0.041,0.987,0.854,17.883,-1.099,0.0,N/A
3422.046999487,0.012,0.041,0.987,0.366,7.263,-0.549,0.0,N/A
3422.057039708,0.012,0.041,0.987,-0.061,-2.625,0.0,0.0,N/A
3422.067070013,0.012,0.041,0.987,-0.488,-12.024,0.427,0.0,N/A
3422.078510511,0.012,0.041,0.987,-0.854,-20.203,0.793,0.0,N/A
3422.089920676,0.012,0.041,0.987,-1.16,-27.466,1.16,0.0,N/A
3422.097948128,0.012,0.041,0.987,-1.404,-32.288,1.465,0.0,N/A
3422.108037641,0.012,0.041,0.987,-1.526,-35.156,1.526,0.0,N/A
3422.119038018,0.012,0.041,0.987,-1.587,-36.255,1.526,0.0,N/A
3422.129013782,0.012,0.041,0.987,-1.587,-35.339,1.526,0.0,N/A
3422.138973505,0.012,0.041,0.987,-1.465,-32.227,1.404,0.0,N/A
3422.148985435,0.012,0.041,0.987,-1.16,-26.794,1.16,0.0,N/A
3422.160067187,-0.037,0.043,1.007,-0.793,-19.165,0.732,0.0,N/A
3422.169981993,-0.037,0.043,1.007,-0.366,-8.85,0.305,0.0,N/A
3422.180056047,-0.037,0.043,1.007,0.0,1.221,0.0,0.0,N/A
3422.190037936,-0.037,0.043,1.007,0.427,11.963,-0.305,0.0,N/A
3422.201055522,-0.037,0.043,1.007,0.977,23.315,-0.916,0.0,N/A
3422.210941745,-0.037,0.043,1.007,1.587,35.828,-1.709,0.0,N/A
3422.221051383,-0.037,0.043,1.007,2.075,46.021,-2.319,0.0,N/A
3422.230949856,-0.037,0.043,1.007,2.502,54.688,-2.869,0.0,N/A
3422.240946328,-0.037,0.043,1.007,2.808,61.462,-3.235,0.0,N/A
3422.252033621,-0.037,0.043,1.007,3.052,66.101,-3.296,0.0,N/A
3422.262035635,-0.037,0.043,1.007,3.113,67.81,-3.662,0.0,N/A
3422.27204144,-0.037,0.043,1.007,3.052,66.711,-3.601,0.0,N/A
3422.283068067,-0.037,0.043,1.007,2.869,62.622,-3.296,0.0,N/A
3422.29306279,0.016,0.041,0.986,2.563,54.81,-2.502,0.0,N/A
3422.302995387,0.016,0.041,0.986,2.136,45.166,-2.014,0.0,N/A
3422.31294986,0.016,0.041,0.986,1.587,33.813,-1.404,0.0,N/A
3422.323956071,0.016,0.041,0.986,0.977,21.057,-0.793,0.0,N/A
3422.333951084,0.016,0.041,0.986,0.305,6.165,0.0,0.0,N/A
3422.343968265,0.016,0.041,0.986,-0.305,-7.69,0.366,0.0,N/A
3422.35395832,0.016,0.041,0.986,-0.916,-21.423,0.977,0.0,N/A
3422.36501528,0.016,0.041,0.986,-1.526,-34.546,1.587,0.0,N/A
3422.375038294,0.016,0.041,0.986,-2.075,-46.936,2.136,0.0,N/A
3422.385321471,0.016,0.041,0.986,-2.441,-56.091,2.563,0.0,N/A
3422.396933467,0.016,0.041,0.986,-2.869,-64.514,3.052,0.0,N/A
3422.406987397,0.016,0.041,0.986,-3.052,-68.665,3.357,0.0,N/A
3422.417968816,-0.1,0.045,1.007,-3.113,-69.702,3.296,0.0,N/A
3422.427973163,-0.1,0.045,1.007,-2.991,-67.749,3.357,0.0,N/A
3422.437970802,-0.1,0.045,1.007,-2.869,-63.599,3.052,0.0,N/A
3422.447915941,-0.1,0.045,1.007,-2.563,-56.824,2.747,0.0,N/A
3422.459015484,-0.1,0.045,1.007,-2.075,-47.302,2.136,0.0,N/A
3422.468927957,-0.1,0.045,1.007,-1.343,-33.813,1.404,0.0,N/A
3422.479013387,-0.1,0.045,1.007,-0.732,-19.836,0.427,0.0,N/A
3422.488971359,-0.1,0.045,1.007,-0.183,-5.737,0.0,0.0,N/A
3422.499956862,-0.1,0.045,1.007,0.305,7.507,-0.488,0.0,N/A
3422.509955375,-0.1,0.045,1.007,0.854,20.386,-0.916,0.0,N/A
3422.519952139,-0.1,0.045,1.007,1.404,30.151,-1.648,0.0,N/A
3422.530002569,-0.1,0.045,1.007,1.77,37.292,-2.014,0.0,N/A
3422.53994975,-0.018,0.042,0.991,1.953,41.565,-2.197,0.0,N/A
3422.550898795,-0.018,0.042,0.991,2.014,43.03,-2.258,0.0,N/A
3422.566356956,-0.018,0.042,0.991,1.892,39.307,-2.136,0.0,N/A
3422.576016265,-0.018,0.042,0.991,1.587,33.081,-1.953,0.0,N/A
3422.586969977,-0.018,0.042,0.991,1.16,24.475,-1.587,0.0,N/A
3422.596952449,-0.018,0.042,0.991,0.61,13.123,-1.038,0.0,N/A
3422.606951254,-0.018,0.042,0.991,0.061,2.197,-0.488,0.0,N/A
3422.616949185,-0.018,0.042,0.991,-0.366,-8.362,0.061,0.0,N/A
3422.62797727,-0.018,0.042,0.991,-0.793,-17.578,0.61,0.0,N/A
3422.637998825,-0.018,0.042,0.991,-1.16,-25.574,1.221,0.0,N/A
3422.647997631,-0.018,0.042,0.991,-1.404,-30.64,1.343,0.0,N/A
3422.657977478,-0.018,0.042,0.991,-1.526,-33.203,1.526,0.0,N/A
3422.668028199,-0.019,0.042,1.0,-1.526,-32.593,1.526,0.0,N/A
3422.679017785,-0.019,0.042,1.0,-1.343,-29.053,1.16,0.0,N/A
3422.688950383,-0.019,0.042,1.0,-1.038,-22.583,0.854,0.0,N/A
3422.699021229,-0.019,0.042,1.0,-0.671,-14.771,0.488,0.0,N/A
3422.71000819,-0.019,0.042,1.0,-0.244,-5.371,0.061,0.0,N/A
3422.719991538,-0.019,0.042,1.0,0.244,6.165,-0.244,0.0,N/A
3422.730035259,-0.019,0.042,1.0,0.732,16.907,-0.977,0.0,N/A
3422.739997898,-0.019,0.042,1.0,1.221,26.978,-1.526,0.0,N/A
3422.75094461,-0.019,0.042,1.0,1.648,35.767,-2.014,0.0,N/A
3422.760958582,-0.019,0.042,1.0,1.953,43.396,-2.136,0.0,N/A
3422.771042261,-0.019,0.042,1.0,2.197,48.035,-2.563,0.0,N/A
3422.781048066,-0.019,0.042,1.0,2.319,50.11,-2.686,0.0,N/A
3422.792033861,-0.005,0.042,0.993,2.319,49.316,-2.625,0.0,N/A
3422.802032666,-0.005,0.042,0.993,2.075,45.227,-2.258,0.0,N/A
3422.812036138,-0.005,0.042,0.993,1.77,38.757,-2.075,0.0,N/A
3422.822033194,-0.005,0.042,0.993,1.343,30.151,-1.648,0.0,N/A
3422.833059238,-0.005,0.042,0.993,0.916,19.836,-1.099,0.0,N/A
3422.842992419,-0.005,0.042,0.993,0.366,7.263,-0.366,0.0,N/A
3422.852945141,-0.005,0.042,0.993,-0.122,-5.066,0.0,0.0,N/A
3422.862993529,-0.005,0.042,0.993,-0.671,-18.005,0.61,0.0,N/A
3422.874050198,-0.005,0.042,0.993,-1.282,-31.128,1.221,0.0,N/A
3422.883950713,-0.005,0.042,0.993,-1.953,-45.044,1.953,0.0,N/A
3422.893898769,-0.005,0.042,0.993,-2.502,-56.396,2.563,0.0,N/A
3422.90394949,-0.005,0.042,0.993,-2.93,-65.674,2.991,0.0,N/A
3422.913942754,-0.005,0.042,0.993,-3.235,-72.754,3.357,0.0,N/A
3422.925002339,-0.069,0.044,1.007,-3.479,-77.515,3.662,0.0,N/A
3422.935012811,-0.069,0.044,1.007,-3.418,-78.369,3.479,0.0,N/A
3422.945018325,-0.069,0.044,1.007,-2.991,-73.364,2.869,0.0,N/A
3422.955993328,-0.069,0.044,1.007,-2.319,-63.416,2.319,0.0,N/A
3422.966012258,-0.069,0.044,1.007,-1.221,-49.255,1.648,0.0,N/A
3422.976018646,-0.069,0.044,1.007,-0.305,-30.029,0.854,0.0,N/A
3422.985949786,-0.069,0.044,1.007,-0.061,-9.827,0.488,0.0,N/A
3422.995999341,-0.069,0.044,1.007,-0.061,11.108,0.305,0.0,N/A
3423.006944594,-0.069,0.044,1.007,0.427,30.334,0.0,0.0,N/A
3423.016950982,-0.069,0.044,1.007,1.221,47.546,-0.916,0.0,N/A
3423.026948038,-0.069,0.044,1.007,2.136,60.303,-1.892,0.0,N/A
3423.036945677,-0.069,0.044,1.007,2.991,71.228,-3.052,0.0,N/A
3423.04801197,0.013,0.041,0.986,3.601,79.895,-4.089,0.0,N/A
3423.057955359,0.013,0.041,0.986,3.906,85.266,-4.395,0.0,N/A
3423.067991789,0.013,0.041,0.986,3.967,87.28,-4.456,0.0,N/A
3423.077967845,0.013,0.041,0.986,3.967,87.402,-4.639,0.0,N/A
3423.088997972,0.013,0.041,0.986,3.906,84.656,-4.578,0.0,N/A
3423.098954195,0.013,0.041,0.986,3.601,77.759,-4.089,0.0,N/A
3423.108944834,0.013,0.041,0.986,3.235,68.848,-3.601,0.0,N/A
3423.118998472,0.013,0.041,0.986,2.686,57.739,-3.052,0.0,N/A
3423.129986016,0.013,0.041,0.986,2.075,44.983,-2.441,0.0,N/A
3423.139948072,0.013,0.041,0.986,1.343,29.785,-1.648,0.0,N/A
3423.149946294,0.013,0.041,0.986,0.671,15.442,-0.916,0.0,N/A
3423.160942296,0.013,0.041,0.986,0.061,1.282,-0.183,0.0,N/A
3423.170948685,0.013,0.041,0.986,-0.427,-12.207,0.366,0.0,N/A
3423.181044323,-0.035,0.043,0.995,-1.099,-26.062,1.099,0.0,N/A
3423.190989754,-0.035,0.043,0.995,-1.648,-37.415,1.709,0.0,N/A
3423.200985351,-0.035,0.043,0.995,-2.136,-46.875,2.197,0.0,N/A
3423.212051936,-0.035,0.043,0.995,-2.441,-53.894,2.502,0.0,N/A
3423.222031783,-0.035,0.043,0.995,-2.625,-58.96,2.686,0.0,N/A
3423.23238846,-0.035,0.043,0.995,-2.686,-61.584,2.808,0.0,N/A
3423.248282949,-0.035,0.043,0.995,-2.747,-62.378,2.93,0.0,N/A
3423.254678253,-0.035,0.043,0.995,-2.747,-61.035,2.808,0.0,N/A
3423.2639549,-0.035,0.043,0.995,-2.563,-57.739,2.625,0.0,N/A
3423.274994652,-0.035,0.043,0.995,-2.38,-53.711,2.441,0.0,N/A
3423.285062582,-0.035,0.043,0.995,-2.136,-48.767,2.258,0.0,N/A
3423.29497418,-0.035,0.043,0.995,-1.892,-42.114,1.953,0.0,N/A
3423.305027234,-0.114,0.044,1.004,-1.526,-34.668,1.648,0.0,N/A
3423.315030998,-0.114,0.044,1.004,-1.099,-25.818,1.16,0.0,N/A
3423.326029626,-0.114,0.044,1.004,-0.671,-15.869,0.671,0.0,N/A
3423.335983806,-0.114,0.044,1.004,-0.122,-4.639,0.061,0.0,N/A
3423.348036797,-0.114,0.044,1.004,0.244,5.249,-0.427,0.0,N/A
3423.357936729,-0.114,0.044,1.004,0.732,15.198,-0.916,0.0,N/A
3423.367063877,-0.114,0.044,1.004,1.099,22.644,-1.282,0.0,N/A
3423.377355304,-0.114,0.044,1.004,1.343,28.625,-1.648,0.0,N/A
3423.388163642,-0.114,0.044,1.004,1.526,32.837,-1.892,0.0,N/A
3423.398001908,-0.114,0.044,1.004,1.648,34.851,-2.014,0.0,N/A
3423.408041838,-0.114,0.044,1.004,1.587,33.752,-1.892,0.0,N/A
3423.418052893,-0.114,0.044,1.004,1.404,29.846,-1.648,0.0,N/A
3423.428982396,0.006,0.041,0.988,1.16,23.56,-1.343,0.0,N/A
3423.438947077,0.006,0.041,0.988,0.732,14.832,-0.916,0.0,N/A
3423.448997799,0.006,0.041,0.988,0.305,6.042,-0.427,0.0,N/A
3423.459943343,0.006,0.041,0.988,-0.061,-2.563,0.0,0.0,N/A
3423.469989107,0.006,0.041,0.988,-0.488,-11.292,0.549,0.0,N/A
3423.480001329,0.006,0.041,0.988,-0.793,-18.127,0.671,0.0,N/A
3423.489940926,0.006,0.041,0.988,-1.038,-23.865,0.977,0.0,N/A
3423.500016731,0.006,0.041,0.988,-1.221,-28.442,1.282,0.0,N/A
3423.511004567,0.006,0.041,0.988,-1.404,-31.555,1.465,0.0,N/A
3423.521016789,0.006,0.041,0.988,-1.465,-32.837,1.465,0.0,N/A
3423.530982053,0.006,0.041,0.988,-1.404,-31.86,1.404,0.0,N/A
3423.542053013,0.006,0.041,0.988,-1.282,-28.992,1.282,0.0,N/A
3423.55203111,0.006,0.041,0.988,-1.038,-23.682,1.038,0.0,N/A
3423.562070165,-0.038,0.043,1.006,-0.732,-17.273,0.732,0.0,N/A
3423.572047387,-0.038,0.043,1.006,-0.427,-9.583,0.366,0.0,N/A
3423.583050973,-0.038,0.043,1.006,0.0,-0.793,0.0,0.0,N/A
3423.593023237,-0.038,0.043,1.006,0.427,9.583,-0.488,0.0,N/A
3423.603058501,-0.038,0.043,1.006,0.854,19.226,-0.916,0.0,N/A
3423.613023181,-0.038,0.043,1.006,1.282,28.442,-1.404,0.0,N/A
3423.624022976,-0.038,0.043,1.006,1.648,37.109,-1.831,0.0,N/A
3423.634664607,-0.038,0.043,1.006,2.075,45.898,-2.136,0.0,N/A
3423.645973856,-0.038,0.043,1.006,2.38,52.917,-2.625,0.0,N/A
3423.653993725,-0.038,0.043,1.006,2.625,58.777,-2.869,0.0,N/A
3423.665026477,-0.038,0.043,1.006,2.869,63.904,-3.174,0.0,N/A
3423.675048324,-0.038,0.043,1.006,3.113,68.115,-3.54,0.0,N/A
3423.684943881,0.012,0.041,0.988,3.235,70.679,-3.723,0.0,N/A
3423.695048852,0.012,0.041,0.988,3.296,70.862,-3.662,0.0,N/A
3423.70505699,0.012,0.041,0.988,3.235,69.336,-3.601,0.0,N/A
3423.716029368,0.012,0.041,0.988,3.052,65.796,-3.54,0.0,N/A
3423.72602409,0.012,0.041,0.988,2.686,58.96,-3.174,0.0,N/A
3423.736021729,0.012,0.041,0.988,2.258,50.537,-2.625,0.0,N/A
3423.746023451,0.012,0.041,0.988,1.831,40.71,-2.136,0.0,N/A
3423.757027328,0.012,0.041,0.988,1.343,28.259,-1.404,0.0,N/A
3423.767048884,0.012,0.041,0.988,0.732,15.503,-0.977,0.0,N/A
3423.783117788,0.012,0.041,0.988,0.122,1.953,-0.305,0.0,N/A
3423.790085336,0.012,0.041,0.988,-0.488,-13.367,0.366,0.0,N/A
3423.799990517,0.012,0.041,0.988,-1.221,-29.968,1.343,0.0,N/A
3423.810044155,-0.102,0.044,0.999,-1.77,-43.152,1.77,0.0,N/A
3423.820054919,-0.102,0.044,0.999,-2.319,-55.786,2.441,0.0,N/A
3423.830044099,-0.102,0.044,0.999,-2.93,-67.505,3.052,0.0,N/A
3423.846076546,-0.102,0.044,0.999,-3.662,-83.13,3.723,0.0,N/A
3423.856068643,-0.102,0.044,0.999,-3.967,-90.942,4.089,0.0,N/A
3423.867022646,-0.102,0.044,0.999,-4.333,-97.29,4.517,0.0,N/A
3423.877026701,-0.102,0.044,0.999,-4.517,-101.685,4.944,0.0,N/A
3423.886975049,-0.102,0.044,0.999,-4.578,-103.21,4.822,0.0,N/A
3423.897282726,-0.102,0.044,0.999,-4.395,-102.173,4.761,0.0,N/A
3423.909637005,-0.102,0.044,0.999,-3.662,-94.849,4.028,0.0,N/A
3423.917977704,-0.102,0.044,0.999,-2.258,-83.496,3.113,0.0,N/A
3423.928043883,-0.102,0.044,0.999,-0.854,-70.312,2.258,0.0,N/A
3423.939095594,-0.116,0.044,1.007,0.0,-55.481,1.77,0.0,N/A
3423.949040441,-0.116,0.044,1.007,0.244,-36.316,1.404,0.0,N/A
3423.959021455,-0.116,0.044,1.007,0.244,-16.846,0.61,0.0,N/A
3423.969385715,-0.116,0.044,1.007,0.061,3.296,-0.183,0.0,N/A
3423.980082762,-0.116,0.044,1.007,-0.122,23.01,-0.854,0.0,N/A
3423.990065526,-0.116,0.044,1.007,-0.366,41.748,-1.282,0.0,N/A
3424.000103998,-0.116,0.044,1.007,0.366,59.937,-1.709,0.0,N/A
3424.010162886,-0.116,0.044,1.007,1.404,71.96,-2.258,0.0,N/A
3424.020072442,-0.116,0.044,1.007,2.625,81.299,-2.869,0.0,N/A
3424.031033445,-0.116,0.044,1.007,3.54,89.417,-3.723,0.0,N/A
3424.040988501,-0.116,0.044,1.007,4.272,96.252,-4.7,0.0,N/A
3424.050984098,-0.116,0.044,1.007,4.456,99.182,-5.005,0.0,N/A
3424.062034642,0.073,0.041,0.964,4.517,99.548,-5.066,0.0,N/A
3424.073354683,0.073,0.041,0.964,4.517,97.839,-5.127,0.0,N/A
3424.083124824,0.073,0.041,0.964,4.272,93.018,-4.7,0.0,N/A
