MonoNS,EstNS,MonoS,EstS,AccX,AccY,AccZ,GyroX,GyroY,GyroZ
3267208113558,3267206113558,3267.208113558,3267.206113558,-0.196,0.046,0.983,-0.671,-16.846,0.671
3267225045484,3267223045484,3267.225045484,3267.223045484,-0.196,0.046,0.983,-0.427,-11.902,0.427
3267238728865,3267236728865,3267.238728865,3267.236728865,-0.196,0.046,0.983,-0.305,-7.874,0.183
3267243819263,3267241819263,3267.243819263,3267.241819263,-0.196,0.046,0.983,-0.122,-3.906,0.0
3267256748111,3267254748111,3267.256748111,3267.254748111,-0.196,0.046,0.983,0.061,1.465,-0.183
3267266654453,3267264654453,3267.266654453,3267.264654453,-0.196,0.046,0.983,0.244,5.798,-0.366
3267276652086,3267274652086,3267.276652086,3267.274652086,-0.196,0.046,0.983,0.427,10.62,-0.427
3267286637760,3267284637760,3267.28663776,3267.28463776,-0.136,0.044,0.989,0.61,15.015,-0.793
3267297635214,3267295635214,3267.297635214,3267.295635214,-0.136,0.044,0.989,0.793,19.348,-1.038
3267307633430,3267305633430,3267.30763343,3267.30563343,-0.136,0.044,0.989,0.977,23.56,-1.221
3267317633979,3267315633979,3267.317633979,3267.315633979,-0.136,0.044,0.989,1.099,27.893,-1.404
3267327632778,3267325632778,3267.327632778,3267.325632778,-0.136,0.044,0.989,1.343,32.898,-1.709
3267338593483,3267336593483,3267.338593483,3267.336593483,-0.136,0.044,0.989,1.587,37.476,-1.953
3267348651490,3267346651490,3267.34865149,3267.34665149,-0.136,0.044,0.989,1.77,41.809,-2.197
3267358711247,3267356711247,3267.358711247,3267.356711247,-0.136,0.044,0.989,1.953,45.776,-2.441
3267368640630,3267366640630,3267.36864063,3267.36664063,-0.136,0.044,0.989,2.075,49.316,-2.625
3267379629626,3267377629626,3267.379629626,3267.377629626,-0.136,0.044,0.989,2.136,51.636,-2.747
3267389629300,3267387629300,3267.3896293,3267.3876293,-0.136,0.044,0.989,2.258,53.04,-2.869
3267399676807,3267397676807,3267.399676807,3267.397676807,-0.136,0.044,0.989,2.197,53.284,-2.869
3267409669773,3267407669773,3267.409669773,3267.407669773,-0.136,0.044,0.989,2.136,51.453,-2.686
3267420629894,3267418629894,3267.420629894,3267.418629894,-0.135,0.044,0.988,1.77,46.631,-2.014
3267430635985,3267428635985,3267.430635985,3267.428635985,-0.135,0.044,0.988,1.465,39.49,-1.282
3267440648492,3267438648492,3267.440648492,3267.438648492,-0.135,0.044,0.988,1.16,30.701,-0.671
3267450644667,3267448644667,3267.450644667,3267.448644667,-0.135,0.044,0.988,0.732,19.104,0.0
3267460663007,3267458663007,3267.460663007,3267.458663007,-0.135,0.044,0.988,0.122,7.141,0.244
3267471659295,3267469659295,3267.471659295,3267.469659295,-0.135,0.044,0.988,-0.366,-4.578,0.488
3267481650219,3267479650219,3267.481650219,3267.479650219,-0.135,0.044,0.988,-0.671,-14.465,0.549
3267491701226,3267489701226,3267.491701226,3267.489701226,-0.135,0.044,0.988,-0.732,-22.644,0.488
3267501658317,3267499658317,3267.501658317,3267.499658317,-0.135,0.044,0.988,-0.854,-30.518,0.671
3267512638272,3267510638272,3267.512638272,3267.510638272,-0.135,0.044,0.988,-1.16,-37.354,1.221
3267522639988,3267520639988,3267.522639988,3267.520639988,-0.135,0.044,0.988,-1.526,-43.335,1.709
3267532633828,3267530633828,3267.532633828,3267.530633828,-0.135,0.044,0.988,-1.831,-47.729,2.075
3267542594711,3267540594711,3267.542594711,3267.540594711,-0.238,0.046,0.977,-2.014,-50.659,2.197
3267553637957,3267551637957,3267.553637957,3267.551637957,-0.238,0.046,0.977,-2.075,-51.941,2.258
3267563666214,3267561666214,3267.563666214,3267.561666214,-0.238,0.046,0.977,-2.136,-52.063,2.319
3267573641680,3267571641680,3267.57364168,3267.57164168,-0.238,0.046,0.977,-2.136,-51.025,2.319
3267583641646,3267581641646,3267.583641646,3267.581641646,-0.238,0.046,0.977,-2.014,-48.34,2.258
3267594630933,3267592630933,3267.594630933,3267.592630933,-0.238,0.046,0.977,-1.892,-44.495,2.136
3267604684274,3267602684274,3267.604684274,3267.602684274,-0.238,0.046,0.977,-1.709,-39.429,1.892
3267614629115,3267612629115,3267.614629115,3267.612629115,-0.238,0.046,0.977,-1.404,-33.203,1.587
3267624631998,3267622631998,3267.624631998,3267.622631998,-0.238,0.046,0.977,-1.038,-25.208,1.343
3267634635464,3267632635464,3267.634635464,3267.632635464,-0.238,0.046,0.977,-0.732,-17.029,0.793
3267645631751,3267643631751,3267.645631751,3267.643631751,-0.238,0.046,0.977,-0.366,-8.301,0.305
3267655690050,3267653690050,3267.65569005,3267.65369005,-0.238,0.046,0.977,0.0,0.671,-0.061
3267665678349,3267663678349,3267.665678349,3267.663678349,-0.238,0.046,0.977,0.366,9.705,-0.549
3267675672481,3267673672481,3267.675672481,3267.673672481,-0.181,0.045,0.983,0.793,19.226,-1.038
3267686652436,3267684652436,3267.686652436,3267.684652436,-0.181,0.045,0.983,1.16,27.039,-1.465
3267696640152,3267694640152,3267.696640152,3267.694640152,-0.181,0.045,0.983,1.465,33.813,-1.831
3267706657909,3267704657909,3267.706657909,3267.704657909,-0.181,0.045,0.983,1.709,39.246,-2.197
3267716636584,3267714636584,3267.716636584,3267.714636584,-0.181,0.045,0.983,1.892,43.457,-2.258
3267726635383,3267724635383,3267.726635383,3267.724635383,-0.181,0.045,0.983,2.014,45.41,-2.625
3267737632545,3267735632545,3267.737632545,3267.735632545,-0.181,0.045,0.983,2.014,45.227,-2.625
3267747644469,3267745644469,3267.747644469,3267.745644469,-0.181,0.045,0.983,1.892,42.786,-2.441
3267757637435,3267755637435,3267.757637435,3267.755637435,-0.181,0.045,0.983,1.648,37.903,-1.953
3267767671526,3267765671526,3267.767671526,3267.765671526,-0.181,0.045,0.983,1.404,31.799,-1.77
3267778637189,3267776637189,3267.778637189,3267.776637189,-0.181,0.045,0.983,1.038,24.536,-1.404
3267788625779,3267786625779,3267.788625779,3267.786625779,-0.181,0.045,0.983,0.732,16.479,-0.977
3267798633329,3267796633329,3267.798633329,3267.796633329,-0.142,0.045,0.986,0.366,8.118,-0.549
3267809626116,3267807626116,3267.809626116,3267.807626116,-0.142,0.045,0.986,0.0,-0.916,-0.122
3267819584082,3267817584082,3267.819584082,3267.817584082,-0.142,0.045,0.986,-0.305,-8.606,0.183
3267829650256,3267827650256,3267.829650256,3267.827650256,-0.142,0.045,0.986,-0.549,-15.503,0.549
3267839632722,3267837632722,3267.839632722,3267.837632722,-0.142,0.045,0.986,-0.793,-21.545,0.793
3267849644938,3267847644938,3267.849644938,3267.847644938,-0.142,0.045,0.986,-1.038,-27.222,1.099
3267860650558,3267858650558,3267.860650558,3267.858650558,-0.142,0.045,0.986,-1.221,-31.677,1.343
3267870642066,3267868642066,3267.870642066,3267.868642066,-0.142,0.045,0.986,-1.404,-35.4,1.526
3267880624532,3267878624532,3267.880624532,3267.878624532,-0.142,0.045,0.986,-1.526,-38.391,1.709
3267890631206,3267888631206,3267.890631206,3267.888631206,-0.142,0.045,0.986,-1.709,-40.71,1.831
3267901677951,3267899677951,3267.901677951,3267.899677951,-0.142,0.045,0.986,-1.77,-41.504,1.953
3267911624543,3267909624543,3267.911624543,3267.909624543,-0.142,0.045,0.986,-1.77,-40.894,1.953
3267921655133,3267919655133,3267.921655133,3267.919655133,-0.21,0.046,0.983,-1.648,-38.94,1.892
3267931631766,3267929631766,3267.931631766,3267.929631766,-0.21,0.046,0.983,-1.465,-35.217,1.77
3267942646137,3267940646137,3267.942646137,3267.940646137,-0.21,0.046,0.983,-1.282,-30.334,1.526
3267952576395,3267950576395,3267.952576395,3267.950576395,-0.21,0.046,0.983,-1.038,-24.109,1.221
3267962631194,3267960631194,3267.962631194,3267.960631194,-0.21,0.046,0.983,-0.732,-16.418,0.854
3267972633201,3267970633201,3267.972633201,3267.970633201,-0.21,0.046,0.983,-0.244,-6.592,0.488
3267983854361,3267981854361,3267.983854361,3267.981854361,-0.21,0.046,0.983,0.122,2.991,-0.183
3267994358613,3267992358613,3267.994358613,3267.992358613,-0.21,0.046,0.983,0.549,12.573,-0.671
3268004722574,3268002722574,3268.004722574,3268.002722574,-0.21,0.046,0.983,0.977,22.339,-1.221
3268014905121,3268012905121,3268.014905121,3268.012905121,-0.21,0.046,0.983,1.282,30.09,-1.648
3268024856088,3268022856088,3268.024856088,3268.022856088,-0.21,0.046,0.983,1.587,37.17,-2.075
3268035880083,3268033880083,3268.035880083,3268.033880083,-0.21,0.046,0.983,1.831,42.175,-2.38
3268045836591,3268043836591,3268.045836591,3268.043836591,-0.21,0.046,0.983,2.014,45.593,-2.563
3268055844140,3268053844140,3268.05584414,3268.05384414,-0.131,0.044,0.987,2.075,47.119,-2.747
3268065889606,3268063889606,3268.065889606,3268.063889606,-0.131,0.044,0.987,2.014,46.326,-2.686
3268076860227,3268074860227,3268.076860227,3268.074860227,-0.131,0.044,0.987,1.892,43.396,-2.502
3268086847068,3268084847068,3268.086847068,3268.084847068,-0.131,0.044,0.987,1.709,38.33,-2.197
3268096843534,3268094843534,3268.096843534,3268.094843534,-0.131,0.044,0.987,1.404,31.433,-1.77
3268106840875,3268104840875,3268.106840875,3268.104840875,-0.131,0.044,0.987,0.977,22.034,-1.282
3268117832204,3268115832204,3268.117832204,3268.115832204,-0.131,0.044,0.987,0.549,12.512,-0.793
3268128089708,3268126089708,3268.128089708,3268.126089708,-0.131,0.044,0.987,0.183,2.686,-0.305
3268138042133,3268136042133,3268.138042133,3268.136042133,-0.131,0.044,0.987,-0.244,-8.118,0.183
3268149136128,3268147136128,3268.149136128,3268.147136128,-0.131,0.044,0.987,-0.671,-17.395,0.671
3268158852013,3268156852013,3268.158852013,3268.156852013,-0.131,0.044,0.987,-1.038,-25.574,1.099
3268168718106,3268166718106,3268.168718106,3268.166718106,-0.131,0.044,0.987,-1.343,-33.02,1.587
3268179652269,3268177652269,3268.179652269,3268.177652269,-0.182,0.045,0.985,-1.587,-38.33,1.709
3268189639985,3268187639985,3268.189639985,3268.187639985,-0.182,0.045,0.985,-1.77,-42.236,1.892
3268199662409,3268197662409,3268.199662409,3268.197662409,-0.182,0.045,0.985,-1.892,-44.556,2.014
3268209633792,3268207633792,3268.209633792,3268.207633792,-0.182,0.045,0.985,-1.953,-45.105,2.136
3268220679370,3268218679370,3268.22067937,3268.21867937,-0.182,0.045,0.985,-1.892,-43.518,2.136
3268230749044,3268228749044,3268.230749044,3268.228749044,-0.182,0.045,0.985,-1.77,-39.978,2.075
3268240744343,3268238744343,3268.240744343,3268.238744343,-0.182,0.045,0.985,-1.526,-34.546,1.831
3268250695893,3268248695893,3268.250695893,3268.248695893,-0.182,0.045,0.985,-1.16,-26.306,1.465
3268261688972,3268259688972,3268.261688972,3268.259688972,-0.182,0.045,0.985,-0.732,-16.785,0.977
3268271684563,3268269684563,3268.271684563,3268.269684563,-0.182,0.045,0.985,-0.244,-5.615,0.366
3268281718070,3268279718070,3268.28171807,3268.27971807,-0.182,0.045,0.985,0.183,6.348,-0.244
3268291686536,3268289686536,3268.291686536,3268.289686536,-0.182,0.045,0.985,0.793,19.653,-0.977
3268302724823,3268300724823,3268.302724823,3268.300724823,-0.168,0.045,0.986,1.282,31.189,-1.587
3268312692123,3268310692123,3268.312692123,3268.310692123,-0.168,0.045,0.986,1.77,41.687,-2.197
3268322668464,3268320668464,3268.322668464,3268.320668464,-0.168,0.045,0.986,2.197,50.781,-2.747
3268332691763,3268330691763,3268.332691763,3268.330691763,-0.168,0.045,0.986,2.563,58.594,-3.174
3268343702050,3268341702050,3268.34370205,3268.34170205,-0.168,0.045,0.986,2.747,63.354,-3.54
3268353687141,3268351687141,3268.353687141,3268.351687141,-0.168,0.045,0.986,2.869,65.674,-3.662
3268363693232,3268361693232,3268.363693232,3268.361693232,-0.168,0.045,0.986,2.808,65.247,-3.662
3268373685031,3268371685031,3268.373685031,3268.371685031,-0.168,0.045,0.986,2.625,61.279,-3.357
3268384702610,3268382702610,3268.38470261,3268.38270261,-0.168,0.045,0.986,2.258,53.223,-2.502
3268394680701,3268392680701,3268.394680701,3268.392680701,-0.168,0.045,0.986,1.648,41.565,-1.587
3268404681251,3268402681251,3268.404681251,3268.402681251,-0.168,0.045,0.986,1.099,27.71,-0.916
3268414685008,3268412685008,3268.414685008,3268.412685008,-0.168,0.045,0.986,0.427,10.864,-0.427
3268425682170,3268423682170,3268.42568217,3268.42368217,-0.168,0.045,0.986,-0.061,-4.517,-0.061
3268435692345,3268433692345,3268.435692345,3268.433692345,-0.158,0.045,0.984,-0.488,-18.921,0.183
3268445707185,3268443707185,3268.445707185,3268.443707185,-0.158,0.045,0.984,-0.977,-32.41,0.793
3268455715609,3268453715609,3268.455715609,3268.453715609,-0.158,0.045,0.984,-1.648,-46.082,1.831
3268466683605,3268464683605,3268.466683605,3268.464683605,-0.158,0.045,0.984,-2.197,-56.274,2.319
3268476648863,3268474648863,3268.476648863,3268.474648863,-0.158,0.045,0.984,-2.625,-63.843,2.686
3268486685579,3268484685579,3268.486685579,3268.484685579,-0.158,0.045,0.984,-2.869,-68.909,3.052
3268496682920,3268494682920,3268.49668292,3268.49468292,-0.158,0.045,0.984,-3.052,-71.594,3.296
3268506723718,3268504723718,3268.506723718,3268.504723718,-0.158,0.045,0.984,-3.113,-71.594,3.418
3268517680631,3268515680631,3268.517680631,3268.515680631,-0.158,0.045,0.984,-2.991,-68.787,3.418
3268527685264,3268525685264,3268.527685264,3268.525685264,-0.158,0.045,0.984,-2.747,-63.293,3.235
3268537643814,3268535643814,3268.537643814,3268.535643814,-0.158,0.045,0.984,-2.502,-55.115,2.869
3268547712904,3268545712904,3268.547712904,3268.545712904,-0.158,0.045,0.984,-2.014,-43.335,2.319
3268558685566,3268556685566,3268.558685566,3268.556685566,-0.226,0.046,0.98,-1.404,-30.518,1.648
3268568760781,3268566760781,3268.568760781,3268.566760781,-0.226,0.046,0.98,-0.793,-16.602,0.977
3268578693956,3268576693956,3268.578693956,3268.576693956,-0.226,0.046,0.98,-0.061,-2.014,0.244
3268588764505,3268586764505,3268.588764505,3268.586764505,-0.226,0.046,0.98,0.61,13.916,-0.366
3268600148413,3268598148413,3268.600148413,3268.598148413,-0.226,0.046,0.98,1.282,27.344,-1.343
3268610039296,3268608039296,3268.610039296,3268.608039296,-0.226,0.046,0.98,1.831,39.246,-2.136
3268620020012,3268618020012,3268.620020012,3268.618020012,-0.226,0.046,0.98,2.197,48.828,-2.747
3268629878522,3268627878522,3268.629878522,3268.627878522,-0.226,0.046,0.98,2.502,56.152,-3.174
3268640902225,3268638902225,3268.640902225,3268.638902225,-0.226,0.046,0.98,2.686,60.303,-3.418
3268651077189,3268649077189,3268.651077189,3268.649077189,-0.226,0.046,0.98,2.747,61.951,-3.54
3268661052947,3268659052947,3268.661052947,3268.659052947,-0.226,0.046,0.98,2.747,60.669,-3.418
3268670998955,3268668998955,3268.670998955,3268.668998955,-0.226,0.046,0.98,2.502,55.969,-3.052
3268682305572,3268680305572,3268.682305572,3268.680305572,-0.226,0.046,0.98,2.197,48.95,-2.625
3268692119457,3268690119457,3268.692119457,3268.690119457,-0.105,0.044,0.986,1.77,39.734,-2.136
3268701974175,3268699974175,3268.701974175,3268.699974175,-0.105,0.044,0.986,1.282,28.809,-1.587
3268711978515,3268709978515,3268.711978515,3268.709978515,-0.105,0.044,0.986,0.732,15.381,-0.916
3268723148343,3268721148343,3268.723148343,3268.721148343,-0.105,0.044,0.986,0.122,2.563,-0.244
3268733161433,3268731161433,3268.733161433,3268.731161433,-0.105,0.044,0.986,-0.366,-9.888,0.305
3268742972110,3268740972110,3268.74297211,3268.74097211,-0.105,0.044,0.986,-0.854,-21.545,0.854
3268753058408,3268751058408,3268.753058408,3268.751058408,-0.105,0.044,0.986,-1.343,-33.02,1.404
3268762794127,3268760794127,3268.762794127,3268.760794127,-0.105,0.044,0.986,-1.709,-41.992,1.831
3268774010495,3268772010495,3268.774010495,3268.772010495,-0.105,0.044,0.986,-2.075,-49.438,2.197
3268783996003,3268781996003,3268.783996003,3268.781996003,-0.105,0.044,0.986,-2.319,-54.993,2.502
3268793900303,3268791900303,3268.793900303,3268.791900303,-0.105,0.044,0.986,-2.563,-58.533,2.747
3268804902424,3268802902424,3268.804902424,3268.802902424,-0.105,0.044,0.986,-2.563,-59.265,2.869
3268814885765,3268812885765,3268.814885765,3268.812885765,-0.209,0.046,0.985,-2.502,-57.556,2.93
3268825021062,3268823021062,3268.825021062,3268.823021062,-0.209,0.046,0.985,-2.38,-53.345,2.747
3268834945488,3268832945488,3268.834945488,3268.832945488,-0.209,0.046,0.985,-2.075,-45.715,2.441
3268845876442,3268843876442,3268.845876442,3268.843876442,-0.209,0.046,0.985,-1.709,-36.438,1.953
3268856671774,3268854671774,3268.856671774,3268.854671774,-0.209,0.046,0.985,-1.221,-25.513,1.465
3268866428201,3268864428201,3268.866428201,3268.864428201,-0.209,0.046,0.985,-0.671,-13.55,1.038
3268875619093,3268873619093,3268.875619093,3268.873619093,-0.209,0.046,0.985,-0.061,0.244,0.549
3268886654172,3268884654172,3268.886654172,3268.884654172,-0.209,0.046,0.985,0.488,12.695,0.122
3268896643929,3268894643929,3268.896643929,3268.894643929,-0.209,0.046,0.985,1.038,24.536,-0.305
3268906639520,3268904639520,3268.90663952,3268.90463952,-0.209,0.046,0.985,1.526,35.339,-1.038
3268916637445,3268914637445,3268.916637445,3268.914637445,-0.209,0.046,0.985,2.014,45.654,-2.014
3268927645982,3268925645982,3268.927645982,3268.925645982,-0.209,0.046,0.985,2.319,52.856,-2.686
3268937648281,3268935648281,3268.937648281,3268.935648281,-0.123,0.044,0.987,2.563,57.617,-3.113
3268947596039,3268945596039,3268.947596039,3268.945596039,-0.123,0.044,0.987,2.686,59.937,-3.357
3268957645004,3268955645004,3268.957645004,3268.955645004,-0.123,0.044,0.987,2.625,59.204,-3.418
3268968649167,3268966649167,3268.968649167,3268.966649167,-0.123,0.044,0.987,2.502,55.176,-3.235
3268978652924,3268976652924,3268.978652924,3268.976652924,-0.123,0.044,0.987,2.136,47.974,-2.747
3268988674765,3268986674765,3268.988674765,3268.986674765,-0.123,0.044,0.987,1.709,38.025,-2.136
3268998648189,3268996648189,3268.998648189,3268.996648189,-0.123,0.044,0.987,1.099,24.78,-1.282
3269009668102,3269007668102,3269.009668102,3269.007668102,-0.123,0.044,0.987,0.549,11.353,-0.732
3269019635110,3269017635110,3269.01963511,3269.01763511,-0.123,0.044,0.987,0.0,-2.441,0.0
3269029938988,3269027938988,3269.029938988,3269.027938988,-0.123,0.044,0.987,-0.61,-15.869,0.61
3269040278450,3269038278450,3269.04027845,3269.03827845,-0.123,0.044,0.987,-1.099,-28.076,1.221
3269051071449,3269049071449,3269.051071449,3269.049071449,-0.123,0.044,0.987,-1.587,-39.551,1.77
3269060894083,3269058894083,3269.060894083,3269.058894083,-0.123,0.044,0.987,-2.014,-48.157,2.197
3269070889091,3269068889091,3269.070889091,3269.068889091,-0.171,0.045,0.987,-2.38,-54.443,2.625
3269080892557,3269078892557,3269.080892557,3269.078892557,-0.171,0.045,0.987,-2.563,-58.228,3.052
3269091022604,3269089022604,3269.091022604,3269.089022604,-0.171,0.045,0.987,-2.563,-58.655,2.991
3269102035808,3269100035808,3269.102035808,3269.100035808,-0.171,0.045,0.987,-2.441,-56.274,2.93
3269116541096,3269114541096,3269.116541096,3269.114541096,-0.171,0.045,0.987,-2.319,-50.842,2.747
3269121763451,3269119763451,3269.121763451,3269.119763451,-0.171,0.045,0.987,-1.953,-41.443,2.319
3269132930487,3269130930487,3269.132930487,3269.130930487,-0.171,0.045,0.987,-1.404,-30.212,1.709
3269142968077,3269140968077,3269.142968077,3269.140968077,-0.171,0.045,0.987,-0.793,-17.456,0.977
3269153112125,3269151112125,3269.153112125,3269.151112125,-0.171,0.045,0.987,-0.061,-2.563,0.183
3269168249739,3269166249739,3269.168249739,3269.166249739,-0.171,0.045,0.987,0.488,11.108,-0.488
3269173979296,3269171979296,3269.173979296,3269.171979296,-0.171,0.045,0.987,1.099,24.231,-1.099
3269184029303,3269182029303,3269.184029303,3269.182029303,-0.171,0.045,0.987,1.648,36.316,-1.709
3269195545043,3269193545043,3269.195545043,3269.193545043,-0.153,0.045,0.986,2.075,47.913,-2.38
3269204770351,3269202770351,3269.204770351,3269.202770351,-0.153,0.045,0.986,2.441,56.641,-2.869
3269214731943,3269212731943,3269.214731943,3269.212731943,-0.153,0.045,0.986,2.747,63.599,-3.357
3269224692909,3269222692909,3269.224692909,3269.222692909,-0.153,0.045,0.986,2.991,68.359,-3.723
3269234955955,3269232955955,3269.234955955,3269.232955955,-0.153,0.045,0.986,3.113,70.496,-3.967
3269244686132,3269242686132,3269.244686132,3269.242686132,-0.153,0.045,0.986,3.052,69.519,-3.906
3269255679212,3269253679212,3269.255679212,3269.253679212,-0.153,0.045,0.986,2.869,65.308,-3.601
3269265710385,3269263710385,3269.265710385,3269.263710385,-0.153,0.045,0.986,2.502,57.922,-3.052
3269275681768,3269273681768,3269.275681768,3269.273681768,-0.153,0.045,0.986,2.014,46.753,-2.197
3269285692526,3269283692526,3269.285692526,3269.283692526,-0.153,0.045,0.986,1.404,32.776,-1.343
3269295684908,3269293684908,3269.295684908,3269.293684908,-0.153,0.045,0.986,0.732,17.151,-0.732
3269305683999,3269303683999,3269.305683999,3269.303683999,-0.153,0.045,0.986,0.061,1.404,-0.305
3269315688340,3269313688340,3269.31568834,3269.31368834,-0.153,0.045,0.986,-0.366,-13.977,0.061
3269325673723,3269323673723,3269.325673723,3269.323673723,-0.152,0.045,0.984,-0.916,-28.992,0.793
3269335640439,3269333640439,3269.335640439,3269.333640439,-0.152,0.045,0.984,-1.648,-44.739,1.77
3269345703696,3269343703696,3269.345703696,3269.343703696,-0.152,0.045,0.984,-2.258,-57.19,2.502
3269356675775,3269354675775,3269.356675775,3269.354675775,-0.152,0.045,0.984,-2.747,-67.2,3.113
3269366708991,3269364708991,3269.366708991,3269.364708991,-0.152,0.045,0.984,-3.174,-74.585,3.479
3269376672790,3269374672790,3269.37667279,3269.37467279,-0.152,0.045,0.984,-3.479,-79.285,3.845
3269386725547,3269384725547,3269.386725547,3269.384725547,-0.152,0.045,0.984,-3.54,-80.444,4.028
3269396696930,3269394696930,3269.39669693,3269.39469693,-0.152,0.045,0.984,-3.418,-77.881,3.967
3269406652855,3269404652855,3269.406652855,3269.404652855,-0.152,0.045,0.984,-3.235,-71.777,3.784
3269416676445,3269414676445,3269.416676445,3269.414676445,-0.152,0.045,0.984,-2.93,-62.378,3.357
3269426678453,3269424678453,3269.426678453,3269.424678453,-0.152,0.045,0.984,-2.258,-49.072,2.625
3269436688627,3269434688627,3269.436688627,3269.434688627,-0.152,0.045,0.984,-1.648,-35.339,1.831
3269447686373,3269445686373,3269.447686373,3269.445686373,-0.214,0.046,0.983,-0.916,-20.996,1.038
3269457688672,3269455688672,3269.457688672,3269.455688672,-0.214,0.046,0.983,-0.244,-6.714,0.183
3269467630013,3269465630013,3269.467630013,3269.465630013,-0.214,0.046,0.983,0.366,6.592,-0.549
3269477677812,3269475677812,3269.477677812,3269.475677812,-0.214,0.046,0.983,0.916,18.372,-1.221
3269487676903,3269485676903,3269.487676903,3269.485676903,-0.214,0.046,0.983,1.404,28.198,-1.77
3269497629619,3269495629619,3269.497629619,3269.495629619,-0.214,0.046,0.983,1.77,35.889,-2.197
3269507686168,3269505686168,3269.507686168,3269.505686168,-0.214,0.046,0.983,2.014,41.26,-2.502
3269517682925,3269515682925,3269.517682925,3269.515682925,-0.214,0.046,0.983,2.136,44.373,-2.686
3269527677058,3269525677058,3269.527677058,3269.525677058,-0.214,0.046,0.983,2.075,44.25,-2.563
3269537683149,3269535683149,3269.537683149,3269.535683149,-0.214,0.046,0.983,1.892,41.504,-2.319
3269548695769,3269546695769,3269.548695769,3269.546695769,-0.214,0.046,0.983,1.587,37.17,-2.014
3269558727526,3269556727526,3269.558727526,3269.556727526,-0.214,0.046,0.983,1.343,31.982,-1.648
3269568750534,3269566750534,3269.568750534,3269.566750534,-0.214,0.046,0.983,1.038,27.1,-1.282
3269578679042,3269576679042,3269.578679042,3269.576679042,-0.091,0.043,0.987,0.854,23.743,-1.038
3269588639633,3269586639633,3269.588639633,3269.586639633,-0.091,0.043,0.987,0.793,22.644,-1.038
3269598681015,3269596681015,3269.598681015,3269.596681015,-0.091,0.043,0.987,0.916,23.438,-1.099
3269608697023,3269606697023,3269.608697023,3269.606697023,-0.091,0.043,0.987,1.038,25.452,-1.282
3269618756196,3269616756196,3269.618756196,3269.616756196,-0.091,0.043,0.987,1.16,27.893,-1.465
3269628700163,3269626700163,3269.628700163,3269.626700163,-0.091,0.043,0.987,1.282,30.212,-1.709
3269639704908,3269637704908,3269.639704908,3269.637704908,-0.091,0.043,0.987,1.404,31.616,-1.892
3269649723541,3269647723541,3269.649723541,3269.647723541,-0.091,0.043,0.987,1.404,31.494,-1.892
3269659677715,3269657677715,3269.659677715,3269.657677715,-0.091,0.043,0.987,1.343,29.541,-1.77
3269669684390,3269667684390,3269.66968439,3269.66768439,-0.091,0.043,0.987,1.16,25.635,-1.587
3269679714397,3269677714397,3269.679714397,3269.677714397,-0.091,0.043,0.987,0.916,19.592,-1.221
3269689691030,3269687691030,3269.68969103,3269.68769103,-0.091,0.043,0.987,0.61,11.78,-0.793
3269699703537,3269697703537,3269.699703537,3269.697703537,-0.171,0.045,0.988,0.183,1.77,-0.122
3269709639337,3269707639337,3269.709639337,3269.707639337,-0.171,0.045,0.988,-0.183,-8.179,0.122
3269720751415,3269718751415,3269.720751415,3269.718751415,-0.171,0.045,0.988,-0.671,-18.311,0.671
3269730684881,3269728684881,3269.730684881,3269.728684881,-0.171,0.045,0.988,-1.099,-27.466,1.16
3269740712555,3269738712555,3269.740712555,3269.738712555,-0.171,0.045,0.988,-1.404,-34.912,1.587
3269750690063,3269748690063,3269.750690063,3269.748690063,-0.171,0.045,0.988,-1.648,-40.344,1.831
3269760742237,3269758742237,3269.760742237,3269.758742237,-0.171,0.045,0.988,-1.831,-43.823,2.014
3269770714786,3269768714786,3269.770714786,3269.768714786,-0.171,0.045,0.988,-1.953,-45.105,2.136
3269780677711,3269778677711,3269.780677711,3269.778677711,-0.171,0.045,0.988,-1.953,-44.128,2.136
3269790682051,3269788682051,3269.790682051,3269.788682051,-0.171,0.045,0.988,-1.77,-40.71,2.136
3269800677059,3269798677059,3269.800677059,3269.798677059,-0.171,0.045,0.988,-1.526,-36.072,1.709
3269810696858,3269808696858,3269.810696858,3269.808696858,-0.171,0.045,0.988,-1.221,-30.457,1.343
3269821672729,3269819672729,3269.821672729,3269.819672729,-0.171,0.045,0.988,-0.916,-24.475,0.916
3269831699528,3269829699528,3269.831699528,3269.829699528,-0.207,0.046,0.983,-0.671,-19.104,0.61
3269841695702,3269839695702,3269.841695702,3269.839695702,-0.207,0.046,0.983,-0.488,-14.893,0.366
3269851713168,3269849713168,3269.851713168,3269.849713168,-0.207,0.046,0.983,-0.366,-11.963,0.244
3269861742008,3269859742008,3269.861742008,3269.859742008,-0.207,0.046,0.983,-0.305,-10.071,0.183
3269871683642,3269869683642,3269.871683642,3269.869683642,-0.207,0.046,0.983,-0.305,-9.033,0.183
3269881688274,3269879688274,3269.881688274,3269.879688274,-0.207,0.046,0.983,-0.305,-8.301,0.244
3269891671323,3269889671323,3269.891671323,3269.889671323,-0.207,0.046,0.983,-0.244,-7.08,0.183
3269902680152,3269900680152,3269.902680152,3269.900680152,-0.207,0.046,0.983,-0.183,-5.371,0.122
3269912664660,3269910664660,3269.91266466,3269.91066466,-0.207,0.046,0.983,-0.122,-2.991,0.061
3269922694959,3269920694959,3269.922694959,3269.920694959,-0.207,0.046,0.983,0.0,0.061,0.0
3269932671883,3269930671883,3269.932671883,3269.930671883,-0.207,0.046,0.983,0.122,3.967,-0.183
3269942740390,3269940740390,3269.94274039,3269.94074039,-0.207,0.046,0.983,0.366,8.362,-0.427
3269952681732,3269950681732,3269.952681732,3269.950681732,-0.13,0.044,0.989,0.549,13.062,-0.671
3269962658948,3269960658948,3269.962658948,3269.960658948,-0.13,0.044,0.989,0.732,17.761,-0.916
3269972680205,3269970680205,3269.972680205,3269.970680205,-0.13,0.044,0.989,0.916,22.888,-0.977
3269982680171,3269980680171,3269.982680171,3269.980680171,-0.13,0.044,0.989,1.16,27.344,-1.404
3269993680250,3269991680250,3269.99368025,3269.99168025,-0.13,0.044,0.989,1.343,31.25,-1.709
3270003681674,3270001681674,3270.003681674,3270.001681674,-0.13,0.044,0.989,1.465,34.18,-1.892
3270013677848,3270011677848,3270.013677848,3270.011677848,-0.13,0.044,0.989,1.587,35.522,-2.075
3270023678398,3270021678398,3270.023678398,3270.021678398,-0.13,0.044,0.989,1.587,34.973,-2.014
3270033750404,3270031750404,3270.033750404,3270.031750404,-0.13,0.044,0.989,1.465,32.471,-1.892
3270043677163,3270041677163,3270.043677163,3270.041677163,-0.13,0.044,0.989,1.221,28.259,-1.648
3270053755586,3270051755586,3270.053755586,3270.051755586,-0.13,0.044,0.989,0.977,22.766,-1.343
3270063694011,3270061694011,3270.063694011,3270.061694011,-0.13,0.044,0.989,0.671,15.625,-0.732
3270073689893,3270071689893,3270.073689893,3270.071689893,-0.13,0.044,0.989,0.366,8.972,-0.488
3270083676151,3270081676151,3270.083676151,3270.081676151,-0.139,0.045,0.989,0.061,2.869,-0.183
3270094697522,3270092697522,3270.094697522,3270.092697522,-0.139,0.045,0.989,-0.061,-2.197,0.0
3270104744737,3270102744737,3270.104744737,3270.102744737,-0.139,0.045,0.989,-0.244,-6.104,0.183
3270114672662,3270112672662,3270.114672662,3270.112672662,-0.139,0.045,0.989,-0.366,-8.911,0.305
3270124669711,3270122669711,3270.124669711,3270.122669711,-0.139,0.045,0.989,-0.427,-10.681,0.366
3270134667344,3270132667344,3270.134667344,3270.132667344,-0.139,0.045,0.989,-0.427,-11.78,0.366
3270144757142,3270142757142,3270.144757142,3270.142757142,-0.139,0.045,0.989,-0.427,-12.573,0.366
3270154704317,3270152704317,3270.154704317,3270.152704317,-0.139,0.045,0.989,-0.488,-13.672,0.488
3270164680074,3270162680074,3270.164680074,3270.162680074,-0.139,0.045,0.989,-0.549,-15.625,0.427
3270174721457,3270172721457,3270.174721457,3270.172721457,-0.139,0.045,0.989,-0.671,-18.494,0.61
3270185673703,3270183673703,3270.185673703,3270.183673703,-0.139,0.045,0.989,-0.854,-21.973,0.854
3270195664919,3270193664919,3270.195664919,3270.193664919,-0.139,0.045,0.989,-1.038,-25.757,1.099
3270205751217,3270203751217,3270.205751217,3270.203751217,-0.189,0.046,0.986,-1.221,-29.358,1.343
3270215681184,3270213681184,3270.215681184,3270.213681184,-0.189,0.046,0.986,-1.343,-32.532,1.526
3270225663358,3270223663358,3270.225663358,3270.223663358,-0.189,0.046,0.986,-1.404,-34.79,1.587
3270235747906,3270233747906,3270.235747906,3270.233747906,-0.189,0.046,0.986,-1.465,-36.072,1.648
3270245696248,3270243696248,3270.245696248,3270.243696248,-0.189,0.046,0.986,-1.526,-36.499,1.709
3270255707588,3270253707588,3270.255707588,3270.253707588,-0.189,0.046,0.986,-1.587,-35.461,1.709
3270265754512,3270263754512,3270.265754512,3270.263754512,-0.189,0.046,0.986,-1.465,-33.203,1.587
3270276745841,3270274745841,3270.276745841,3270.274745841,-0.189,0.046,0.986,-1.343,-29.846,1.404
3270286668516,3270284668516,3270.286668516,3270.284668516,-0.189,0.046,0.986,-1.16,-25.696,1.221
3270296744023,3270294744023,3270.296744023,3270.294744023,-0.189,0.046,0.986,-0.916,-20.447,0.977
3270306663490,3270304663490,3270.30666349,3270.30466349,-0.189,0.046,0.986,-0.61,-14.16,0.61
3270316702247,3270314702247,3270.316702247,3270.314702247,-0.189,0.046,0.986,-0.305,-7.019,0.244
3270326738087,3270324738087,3270.326738087,3270.324738087,-0.189,0.046,0.986,0.0,0.61,-0.061
3270336660762,3270334660762,3270.336660762,3270.334660762,-0.139,0.045,0.99,0.366,8.728,-0.488
3270346688728,3270344688728,3270.346688728,3270.344688728,-0.139,0.045,0.99,0.793,17.517,-0.793
3270357689099,3270355689099,3270.357689099,3270.355689099,-0.139,0.045,0.99,1.16,25.208,-1.404
3270367665440,3270365665440,3270.36766544,3270.36566544,-0.139,0.045,0.99,1.526,32.043,-1.77
3270377665406,3270375665406,3270.377665406,3270.375665406,-0.139,0.045,0.99,1.77,37.72,-2.136
3270387707954,3270385707954,3270.387707954,3270.385707954,-0.139,0.045,0.99,1.892,41.809,-2.38
3270397667087,3270395667087,3270.397667087,3270.395667087,-0.139,0.045,0.99,1.953,43.823,-2.502
3270407667928,3270405667928,3270.407667928,3270.405667928,-0.139,0.045,0.99,1.892,43.945,-2.502
3270417676644,3270415676644,3270.417676644,3270.415676644,-0.139,0.045,0.99,1.831,42.48,-2.441
3270427631694,3270425631694,3270.427631694,3270.425631694,-0.139,0.045,0.99,1.709,38.94,-2.075
3270437672492,3270435672492,3270.437672492,3270.435672492,-0.139,0.045,0.99,1.526,33.997,-1.892
3270448669072,3270446669072,3270.448669072,3270.446669072,-0.139,0.045,0.99,1.221,27.71,-1.526
3270458665829,3270456665829,3270.458665829,3270.456665829,-0.139,0.045,0.99,0.916,20.386,-1.16
3270468675128,3270466675128,3270.468675128,3270.466675128,-0.107,0.044,0.989,0.549,12.268,-0.732
3270478692011,3270476692011,3270.478692011,3270.476692011,-0.107,0.044,0.989,0.183,3.784,-0.305
3270488670685,3270486670685,3270.488670685,3270.486670685,-0.107,0.044,0.989,-0.122,-4.395,0.0
3270498694567,3270496694567,3270.498694567,3270.496694567,-0.107,0.044,0.989,-0.427,-12.146,0.366
3270508667117,3270506667117,3270.508667117,3270.506667117,-0.107,0.044,0.989,-0.732,-19.043,0.732
3270518688082,3270516688082,3270.518688082,3270.516688082,-0.107,0.044,0.989,-1.038,-25.513,1.16
3270528673173,3270526673173,3270.528673173,3270.526673173,-0.107,0.044,0.989,-1.221,-30.334,1.221
3270538666139,3270536666139,3270.538666139,3270.536666139,-0.107,0.044,0.989,-1.404,-33.936,1.465
3270549626261,3270547626261,3270.549626261,3270.547626261,-0.107,0.044,0.989,-1.526,-36.011,1.648
3270559665018,3270557665018,3270.559665018,3270.557665018,-0.107,0.044,0.989,-1.526,-36.499,1.709
3270569668192,3270567668192,3270.569668192,3270.567668192,-0.107,0.044,0.989,-1.526,-35.339,1.709
3270579681866,3270577681866,3270.579681866,3270.577681866,-0.107,0.044,0.989,-1.404,-32.471,1.648
3270589589374,3270587589374,3270.589589374,3270.587589374,-0.179,0.046,0.99,-1.282,-27.527,1.465
3270599719714,3270597719714,3270.599719714,3270.597719714,-0.179,0.046,0.99,-0.916,-19.836,1.221
3270610745459,3270608745459,3270.610745459,3270.608745459,-0.179,0.046,0.99,-0.549,-11.353,0.549
3270620694967,3270618694967,3270.620694967,3270.618694967,-0.179,0.046,0.99,-0.061,-1.77,0.0
3270631041721,3270629041721,3270.631041721,3270.629041721,-0.179,0.046,0.99,0.427,9.155,-0.549
3270642117049,3270640117049,3270.642117049,3270.640117049,-0.179,0.046,0.99,0.854,18.494,-1.16
3270651800852,3270649800852,3270.651800852,3270.649800852,-0.179,0.046,0.99,1.221,26.245,-1.587
3270661873150,3270659873150,3270.66187315,3270.65987315,-0.179,0.046,0.99,1.465,32.104,-1.953
3270672064156,3270670064156,3270.672064156,3270.670064156,-0.179,0.046,0.99,1.587,35.95,-2.136
3270681981289,3270679981289,3270.681981289,3270.679981289,-0.179,0.046,0.99,1.709,37.781,-2.258
3270691981547,3270689981547,3270.691981547,3270.689981547,-0.179,0.046,0.99,1.709,37.354,-2.258
3270703063583,3270701063583,3270.703063583,3270.701063583,-0.179,0.046,0.99,1.587,34.729,-2.136
3270713074340,3270711074340,3270.71307434,3270.71107434,-0.179,0.046,0.99,1.343,30.09,-1.77
3270722858475,3270720858475,3270.722858475,3270.720858475,-0.12,0.044,0.988,1.099,23.926,-1.404
3270732855233,3270730855233,3270.732855233,3270.730855233,-0.12,0.044,0.988,0.793,16.418,-0.977
3270743065488,3270741065488,3270.743065488,3270.741065488,-0.12,0.044,0.988,0.366,7.874,-0.549
3270752972705,3270750972705,3270.752972705,3270.750972705,-0.12,0.044,0.988,0.0,-1.099,-0.061
3270762923671,3270760923671,3270.762923671,3270.760923671,-0.12,0.044,0.988,-0.366,-10.01,0.305
3270772875513,3270770875513,3270.772875513,3270.770875513,-0.12,0.044,0.988,-0.732,-18.25,0.732
3270782900270,3270780900270,3270.78290027,3270.78090027,-0.12,0.044,0.988,-1.038,-25.574,1.038
3270792890028,3270790890028,3270.792890028,3270.790890028,-0.12,0.044,0.988,-1.282,-32.41,1.404
3270804013480,3270802013480,3270.80401348,3270.80201348,-0.12,0.044,0.988,-1.526,-37.781,1.709
3270814000030,3270812000030,3270.81400003,3270.81200003,-0.12,0.044,0.988,-1.709,-42.053,1.892
3270823903163,3270821903163,3270.823903163,3270.821903163,-0.12,0.044,0.988,-1.892,-45.166,2.075
3270833894963,3270831894963,3270.833894963,3270.831894963,-0.12,0.044,0.988,-2.075,-46.997,2.258
3270843896970,3270841896970,3270.84389697,3270.84189697,-0.174,0.045,0.99,-2.136,-46.997,2.319
3270854010976,3270852010976,3270.854010976,3270.852010976,-0.174,0.045,0.99,-2.075,-44.983,2.258
3270864028734,3270862028734,3270.864028734,3270.862028734,-0.174,0.045,0.99,-1.953,-41.138,2.014
3270873986117,3270871986117,3270.873986117,3270.871986117,-0.174,0.045,0.99,-1.709,-35.889,1.77
3270883894209,3270881894209,3270.883894209,3270.881894209,-0.174,0.045,0.99,-1.343,-29.236,1.404
3270893896799,3270891896799,3270.893896799,3270.891896799,-0.174,0.045,0.99,-0.916,-20.63,1.099
3270904024514,3270902024514,3270.904024514,3270.902024514,-0.174,0.045,0.99,-0.488,-12.268,0.427
3270913802232,3270911802232,3270.913802232,3270.911802232,-0.174,0.045,0.99,-0.122,-3.845,0.0
3270924677480,3270922677480,3270.92467748,3270.92267748,-0.174,0.045,0.99,0.183,3.967,-0.427
3270934674820,3270932674820,3270.93467482,3270.93267482,-0.174,0.045,0.99,0.549,10.803,-0.793
3270944734869,3270942734869,3270.944734869,3270.942734869,-0.174,0.045,0.99,0.793,16.235,-1.099
3270954662211,3270952662211,3270.954662211,3270.952662211,-0.174,0.045,0.99,1.038,20.02,-1.343
3270964683468,3270962683468,3270.964683468,3270.962683468,-0.174,0.045,0.99,1.099,22.034,-1.465
3270974682559,3270972682559,3270.974682559,3270.972682559,-0.104,0.044,0.991,1.099,22.217,-1.465
3270984698858,3270982698858,3270.984698858,3270.982698858,-0.104,0.044,0.991,1.038,20.386,-1.16
3270994677824,3270992677824,3270.994677824,3270.992677824,-0.104,0.044,0.991,0.854,17.029,-1.099
3271005684320,3271003684320,3271.00568432,3271.00368432,-0.104,0.044,0.991,0.61,12.451,-0.793
3271015658327,3271013658327,3271.015658327,3271.013658327,-0.104,0.044,0.991,0.366,7.202,-0.488
3271025659168,3271023659168,3271.025659168,3271.023659168,-0.104,0.044,0.991,0.061,2.136,-0.122
3271035654176,3271033654176,3271.035654176,3271.033654176,-0.104,0.044,0.991,-0.122,-1.892,0.061
3271045660267,3271043660267,3271.045660267,3271.043660267,-0.104,0.044,0.991,-0.244,-4.211,0.244
3271055723815,3271053723815,3271.055723815,3271.053723815,-0.104,0.044,0.991,-0.244,-4.456,0.305
3271065659615,3271063659615,3271.065659615,3271.063659615,-0.104,0.044,0.991,-0.183,-2.686,0.183
3271075661914,3271073661914,3271.075661914,3271.073661914,-0.104,0.044,0.991,0.0,1.221,0.122
3271085655463,3271083655463,3271.085655463,3271.083655463,-0.104,0.044,0.991,0.244,6.104,-0.244
3271096664292,3271094664292,3271.096664292,3271.094664292,-0.103,0.044,0.995,0.488,11.719,-0.549
3271106660175,3271104660175,3271.106660175,3271.104660175,-0.103,0.044,0.995,0.793,17.456,-0.977
3271116721098,3271114721098,3271.116721098,3271.114721098,-0.103,0.044,0.995,1.038,22.522,-1.343
3271126670315,3271124670315,3271.126670315,3271.124670315,-0.103,0.044,0.995,1.221,26.001,-1.648
3271136655989,3271134655989,3271.136655989,3271.134655989,-0.103,0.044,0.995,1.282,27.588,-1.709
3271146700580,3271144700580,3271.14670058,3271.14470058,-0.103,0.044,0.995,1.221,27.283,-1.709
3271156685671,3271154685671,3271.156685671,3271.154685671,-0.103,0.044,0.995,1.16,25.085,-1.587
3271166657928,3271164657928,3271.166657928,3271.164657928,-0.103,0.044,0.995,0.916,20.874,-1.16
3271176663144,3271174663144,3271.176663144,3271.174663144,-0.103,0.044,0.995,0.671,15.747,-0.977
3271186654360,3271184654360,3271.18665436,3271.18465436,-0.103,0.044,0.995,0.427,10.01,-0.61
3271197657064,3271195657064,3271.197657064,3271.195657064,-0.103,0.044,0.995,0.183,4.456,-0.244
3271207671030,3271205671030,3271.20767103,3271.20567103,-0.103,0.044,0.995,0.0,-0.122,0.0
3271217619371,3271215619371,3271.217619371,3271.215619371,-0.103,0.044,0.995,-0.122,-3.601,0.122
3271227724919,3271225724919,3271.227724919,3271.225724919,-0.125,0.044,0.992,-0.244,-5.92,0.183
3271237695136,3271235695136,3271.237695136,3271.235695136,-0.125,0.044,0.992,-0.305,-7.263,0.244
3271247654560,3271245654560,3271.24765456,3271.24565456,-0.125,0.044,0.992,-0.305,-7.812,0.183
3271257652776,3271255652776,3271.257652776,3271.255652776,-0.125,0.044,0.992,-0.244,-7.996,0.122
3271267678992,3271265678992,3271.267678992,3271.265678992,-0.125,0.044,0.992,-0.244,-8.545,0.061
3271277662624,3271275662624,3271.277662624,3271.275662624,-0.125,0.044,0.992,-0.305,-10.01,0.061
3271288667662,3271286667662,3271.288667662,3271.286667662,-0.125,0.044,0.992,-0.427,-12.573,0.244
3271298661211,3271296661211,3271.298661211,3271.296661211,-0.125,0.044,0.992,-0.549,-16.052,0.427
3271308660302,3271306660302,3271.308660302,3271.306660302,-0.125,0.044,0.992,-0.732,-20.325,0.671
3271318725017,3271316725017,3271.318725017,3271.316725017,-0.125,0.044,0.992,-0.977,-25.024,0.916
3271328729358,3271326729358,3271.328729358,3271.326729358,-0.125,0.044,0.992,-1.221,-29.785,1.16
3271338578534,3271336578534,3271.338578534,3271.336578534,-0.125,0.044,0.992,-1.465,-34.363,1.404
3271348676790,3271346676790,3271.34867679,3271.34667679,-0.152,0.045,0.993,-1.709,-38.818,1.892
3271358624257,3271356624257,3271.358624257,3271.356624257,-0.152,0.045,0.993,-1.892,-42.114,1.892
3271369616752,3271367616752,3271.369616752,3271.367616752,-0.152,0.045,0.993,-2.014,-44.067,2.075
3271379671259,3271377671259,3271.379671259,3271.377671259,-0.152,0.045,0.993,-1.953,-44.373,2.136
3271389569435,3271387569435,3271.389569435,3271.387569435,-0.152,0.045,0.993,-1.831,-42.908,2.075
3271399617233,3271397617233,3271.399617233,3271.397617233,-0.152,0.045,0.993,-1.77,-39.734,2.075
3271409692448,3271407692448,3271.409692448,3271.407692448,-0.152,0.045,0.993,-1.526,-34.729,1.892
3271419636998,3271417636998,3271.419636998,3271.417636998,-0.152,0.045,0.993,-1.282,-27.771,1.526
3271429607214,3271427607214,3271.429607214,3271.427607214,-0.152,0.045,0.993,-0.854,-19.226,1.099
3271439610389,3271437610389,3271.439610389,3271.437610389,-0.152,0.045,0.993,-0.427,-8.362,0.732
3271450664134,3271448664134,3271.450664134,3271.448664134,-0.152,0.045,0.993,0.061,2.441,0.0
3271460614225,3271458614225,3271.460614225,3271.458614225,-0.152,0.045,0.993,0.61,14.099,-0.549
3271470618274,3271468618274,3271.470618274,3271.468618274,-0.152,0.045,0.993,1.099,25.696,-1.221
3271480616198,3271478616198,3271.480616198,3271.478616198,-0.088,0.043,0.993,1.587,36.499,-1.892
3271490684997,3271488684997,3271.490684997,3271.488684997,-0.088,0.043,0.993,2.075,45.654,-2.441
3271500615839,3271498615839,3271.500615839,3271.498615839,-0.088,0.043,0.993,2.38,52.795,-2.808
3271510612888,3271508612888,3271.510612888,3271.508612888,-0.088,0.043,0.993,2.747,58.105,-3.113
3271520606729,3271518606729,3271.520606729,3271.518606729,-0.088,0.043,0.993,2.93,61.34,-3.357
3271530641111,3271528641111,3271.530641111,3271.528641111,-0.088,0.043,0.993,2.93,62.073,-3.296
3271540616869,3271538616869,3271.540616869,3271.538616869,-0.088,0.043,0.993,2.747,60.181,-3.357
3271551611698,3271549611698,3271.551611698,3271.549611698,-0.088,0.043,0.993,2.502,55.908,-3.174
3271561610789,3271559610789,3271.561610789,3271.559610789,-0.088,0.043,0.993,2.197,49.561,-2.808
3271571684837,3271569684837,3271.571684837,3271.569684837,-0.088,0.043,0.993,1.831,41.382,-2.319
3271581620929,3271579620929,3271.581620929,3271.579620929,-0.088,0.043,0.993,1.404,31.738,-1.831
3271591636644,3271589636644,3271.591636644,3271.589636644,-0.088,0.043,0.993,0.916,20.752,-1.221
3271601644193,3271599644193,3271.601644193,3271.599644193,-0.083,0.043,0.991,0.427,9.033,-0.61
3271611647659,3271609647659,3271.611647659,3271.609647659,-0.083,0.043,0.991,-0.061,-2.686,0.0
3271621623125,3271619623125,3271.621623125,3271.619623125,-0.083,0.043,0.991,-0.549,-13.855,0.488
3271631626299,3271629626299,3271.631626299,3271.629626299,-0.083,0.043,0.991,-1.038,-25.024,1.221
3271642615879,3271640615879,3271.642615879,3271.640615879,-0.083,0.043,0.991,-1.404,-33.752,1.526
3271652632761,3271650632761,3271.652632761,3271.650632761,-0.083,0.043,0.991,-1.709,-40.894,1.892
3271662672976,3271660672976,3271.662672976,3271.660672976,-0.083,0.043,0.991,-1.953,-46.387,2.258
3271672649901,3271670649901,3271.672649901,3271.670649901,-0.083,0.043,0.991,-2.197,-49.805,2.563
3271682649283,3271680649283,3271.682649283,3271.680649283,-0.083,0.043,0.991,-2.319,-50.537,2.625
3271692688915,3271690688915,3271.692688915,3271.690688915,-0.083,0.043,0.991,-2.258,-48.462,2.563
3271702613632,3271700613632,3271.702613632,3271.700613632,-0.083,0.043,0.991,-2.075,-43.884,2.319
3271712660847,3271710660847,3271.712660847,3271.710660847,-0.083,0.043,0.991,-1.77,-37.109,1.953
3271722672772,3271720672772,3271.722672772,3271.720672772,-0.083,0.043,0.991,-1.282,-27.283,1.404
3271733666726,3271731666726,3271.733666726,3271.731666726,-0.165,0.045,0.994,-0.793,-16.724,0.793
3271743652400,3271741652400,3271.7436524,3271.7416524,-0.165,0.045,0.994,-0.183,-5.554,0.183
3271753612991,3271751612991,3271.753612991,3271.751612991,-0.165,0.045,0.994,0.305,5.615,-0.366
3271763606249,3271761606249,3271.763606249,3271.761606249,-0.165,0.045,0.994,0.793,16.174,-0.977
3271773615840,3271771615840,3271.77361584,3271.77161584,-0.165,0.045,0.994,1.282,25.452,-1.526
3271783627764,3271781627764,3271.783627764,3271.781627764,-0.165,0.045,0.994,1.648,32.959,-1.953
3271793614021,3271791614021,3271.793614021,3271.791614021,-0.165,0.045,0.994,1.892,38.574,-2.258
3271803634987,3271801634987,3271.803634987,3271.801634987,-0.165,0.045,0.994,2.014,42.603,-2.441
3271813704660,3271811704660,3271.81370466,3271.81170466,-0.165,0.045,0.994,2.075,44.006,-2.563
3271824687240,3271822687240,3271.82468724,3271.82268724,-0.165,0.045,0.994,1.953,43.03,-2.563
3271834617206,3271832617206,3271.834617206,3271.832617206,-0.165,0.045,0.994,1.77,39.795,-2.38
3271844638755,3271842638755,3271.844638755,3271.842638755,-0.165,0.045,0.994,1.587,34.668,-2.075
3271854610138,3271852610138,3271.854610138,3271.852610138,-0.165,0.045,0.994,1.282,27.649,-1.648
3271864646562,3271862646562,3271.864646562,3271.862646562,-0.088,0.043,0.989,0.916,18.982,-1.16
3271874615320,3271872615320,3271.87461532,3271.87261532,-0.088,0.043,0.989,0.488,9.155,-0.671
3271884638910,3271882638910,3271.88463891,3271.88263891,-0.088,0.043,0.989,0.0,-2.38,0.061
3271895632281,3271893632281,3271.895632281,3271.893632281,-0.088,0.043,0.989,-0.488,-13.062,0.427
3271905612997,3271903612997,3271.905612997,3271.903612997,-0.088,0.043,0.989,-0.916,-23.193,0.977
3271915617630,3271913617630,3271.91561763,3271.91361763,-0.088,0.043,0.989,-1.343,-32.349,1.404
3271925645595,3271923645595,3271.925645595,3271.923645595,-0.088,0.043,0.989,-1.648,-40.222,1.831
3271935607645,3271933607645,3271.935607645,3271.933607645,-0.088,0.043,0.989,-2.014,-46.753,2.197
3271945644069,3271943644069,3271.945644069,3271.943644069,-0.088,0.043,0.989,-2.319,-51.636,2.441
3271955580744,3271953580744,3271.955580744,3271.953580744,-0.088,0.043,0.989,-2.502,-54.688,2.625
3271965669084,3271963669084,3271.965669084,3271.963669084,-0.088,0.043,0.989,-2.625,-55.847,2.747
3271975649508,3271973649508,3271.975649508,3271.973649508,-0.088,0.043,0.989,-2.502,-54.382,2.93
3271986616337,3271984616337,3271.986616337,3271.984616337,-0.157,0.045,0.996,-2.258,-50.11,2.563
3271996656844,3271994656844,3271.996656844,3271.994656844,-0.157,0.045,0.996,-1.953,-43.518,2.258
3272006833558,3272004833558,3272.006833558,3272.004833558,-0.157,0.045,0.996,-1.587,-34.729,1.892
3272016680109,3272014680109,3272.016680109,3272.014680109,-0.157,0.045,0.996,-1.099,-23.743,1.404
3272026734033,3272024734033,3272.026734033,3272.024734033,-0.157,0.045,0.996,-0.488,-11.353,0.793
3272036647083,3272034647083,3272.036647083,3272.034647083,-0.157,0.045,0.996,0.061,1.77,0.122
3272046722590,3272044722590,3272.04672259,3272.04472259,-0.157,0.045,0.996,0.671,14.832,-0.549
3272056709722,3272054709722,3272.056709722,3272.054709722,-0.157,0.045,0.996,1.282,28.564,-1.16
3272066677605,3272064677605,3272.066677605,3272.064677605,-0.157,0.045,0.996,1.77,39.795,-2.014
3272077714434,3272075714434,3272.077714434,3272.075714434,-0.157,0.045,0.996,2.258,49.561,-2.502
3272087644692,3272085644692,3272.087644692,3272.085644692,-0.157,0.045,0.996,2.686,57.739,-2.991
3272097717282,3272095717282,3272.097717282,3272.095717282,-0.157,0.045,0.996,3.052,64.148,-3.418
3272107649582,3272105649582,3272.107649582,3272.105649582,-0.157,0.045,0.996,3.174,68.298,-3.723
3272117640798,3272115640798,3272.117640798,3272.115640798,-0.063,0.043,0.988,3.174,69.885,-3.906
3272127716888,3272125716888,3272.127716888,3272.125716888,-0.063,0.043,0.988,3.113,68.848,-3.906
3272137670480,3272135670480,3272.13767048,3272.13567048,-0.063,0.043,0.988,2.93,65.125,-3.662
3272147603655,3272145603655,3272.147603655,3272.145603655,-0.063,0.043,0.988,2.625,57.739,-3.296
3272157716494,3272155716494,3272.157716494,3272.155716494,-0.063,0.043,0.988,2.197,47.974,-2.747
3272168716282,3272166716282,3272.168716282,3272.166716282,-0.063,0.043,0.988,1.648,35.767,-2.136
3272178686789,3272176686789,3272.178686789,3272.176686789,-0.063,0.043,0.988,1.038,21.729,-1.465
3272188684714,3272186684714,3272.188684714,3272.186684714,-0.063,0.043,0.988,0.366,6.775,-0.61
3272198674180,3272196674180,3272.19867418,3272.19667418,-0.063,0.043,0.988,-0.244,-8.24,0.122
3272208717895,3272206717895,3272.208717895,3272.206717895,-0.063,0.043,0.988,-0.916,-22.278,0.854
3272218730402,3272216730402,3272.218730402,3272.216730402,-0.063,0.043,0.988,-1.404,-34.668,1.465
3272228598245,3272226598245,3272.228598245,3272.226598245,-0.063,0.043,0.988,-1.892,-45.227,1.953
3272238648377,3272236648377,3272.238648377,3272.236648377,-0.149,0.045,0.992,-2.319,-54.688,2.441
3272248664967,3272246664967,3272.248664967,3272.246664967,-0.149,0.045,0.992,-2.625,-60.852,2.808
3272259642005,3272257642005,3272.259642005,3272.257642005,-0.149,0.045,0.992,-2.808,-64.453,3.052
3272269599680,3272267599680,3272.26959968,3272.26759968,-0.149,0.045,0.992,-2.991,-65.674,3.235
3272279659437,3272277659437,3272.279659437,3272.277659437,-0.149,0.045,0.992,-2.991,-64.331,3.235
3272289646569,3272287646569,3272.289646569,3272.287646569,-0.149,0.045,0.992,-2.808,-60.364,3.113
3272299601327,3272297601327,3272.299601327,3272.297601327,-0.149,0.045,0.992,-2.441,-53.833,2.747
3272309602168,3272307602168,3272.309602168,3272.307602168,-0.149,0.045,0.992,-2.014,-45.044,2.197
3272319688175,3272317688175,3272.319688175,3272.317688175,-0.149,0.045,0.992,-1.526,-34.79,1.709
3272329723140,3272327723140,3272.32972314,3272.32772314,-0.149,0.045,0.992,-0.977,-22.156,1.038
3272339700064,3272337700064,3272.339700064,3272.337700064,-0.149,0.045,0.992,-0.427,-10.071,0.366
3272350648519,3272348648519,3272.350648519,3272.348648519,-0.149,0.045,0.992,0.061,1.831,-0.244
3272360656360,3272358656360,3272.36065636,3272.35865636,-0.149,0.045,0.992,0.61,13.123,-0.854
3272370657492,3272368657492,3272.370657492,3272.368657492,-0.134,0.044,0.991,1.038,23.132,-1.404
3272380665333,3272378665333,3272.380665333,3272.378665333,-0.134,0.044,0.991,1.404,31.494,-1.77
3272390654508,3272388654508,3272.390654508,3272.388654508,-0.134,0.044,0.991,1.77,38.208,-2.136
3272400597891,3272398597891,3272.400597891,3272.398597891,-0.134,0.044,0.991,2.075,43.274,-2.441
3272410654731,3272408654731,3272.410654731,3272.408654731,-0.134,0.044,0.991,2.258,46.631,-2.502
3272421654810,3272419654810,3272.42165481,3272.41965481,-0.134,0.044,0.991,2.258,47.485,-2.686
3272431699984,3272429699984,3272.431699984,3272.429699984,-0.134,0.044,0.991,2.136,46.265,-2.625
3272441719491,3272439719491,3272.441719491,3272.439719491,-0.134,0.044,0.991,2.014,42.786,-2.441
3272451734332,3272449734332,3272.451734332,3272.449734332,-0.134,0.044,0.991,1.709,36.865,-2.075
3272461644757,3272459644757,3272.461644757,3272.459644757,-0.134,0.044,0.991,1.343,29.175,-1.648
3272471659598,3272469659598,3272.471659598,3272.469659598,-0.134,0.044,0.991,0.916,20.264,-1.16
3272481718771,3272479718771,3272.481718771,3272.479718771,-0.134,0.044,0.991,0.427,10.559,-0.671
3272491638821,3272489638821,3272.491638821,3272.489638821,-0.082,0.043,0.99,0.0,0.977,-0.122
3272501598829,3272499598829,3272.501598829,3272.499598829,-0.082,0.043,0.99,-0.305,-7.751,0.244
3272511720710,3272509720710,3272.51172071,3272.50972071,-0.082,0.043,0.99,-0.671,-16.113,0.61
3272522644957,3272520644957,3272.522644957,3272.520644957,-0.082,0.043,0.99,-0.916,-22.461,0.916
3272532718714,3272530718714,3272.532718714,3272.530718714,-0.082,0.043,0.99,-1.16,-27.649,1.221
3272542654514,3272540654514,3272.542654514,3272.540654514,-0.082,0.043,0.99,-1.404,-31.372,1.465
3272552711937,3272550711937,3272.552711937,3272.550711937,-0.082,0.043,0.99,-1.526,-33.386,1.648
3272562640445,3272560640445,3272.562640445,3272.560640445,-0.082,0.043,0.99,-1.526,-33.508,1.648
3272572715952,3272570715952,3272.572715952,3272.570715952,-0.082,0.043,0.99,-1.465,-31.86,1.587
3272582661377,3272580661377,3272.582661377,3272.580661377,-0.082,0.043,0.99,-1.343,-28.503,1.526
3272592681468,3272590681468,3272.592681468,3272.590681468,-0.082,0.043,0.99,-1.099,-22.583,1.404
3272603660839,3272601660839,3272.603660839,3272.601660839,-0.082,0.043,0.99,-0.732,-15.137,0.854
3272613641263,3272611641263,3272.613641263,3272.611641263,-0.082,0.043,0.99,-0.305,-6.042,0.366
3272623652020,3272621652020,3272.62365202,3272.62165202,-0.142,0.045,0.995,0.122,4.089,-0.183
3272633708569,3272631708569,3272.633708569,3272.631708569,-0.142,0.045,0.995,0.671,14.709,-0.793
3272643637077,3272641637077,3272.643637077,3272.641637077,-0.142,0.045,0.995,1.16,24.78,-1.404
3272653664168,3272651664168,3272.653664168,3272.651664168,-0.142,0.045,0.995,1.587,33.63,-1.892
3272663666759,3272661666759,3272.663666759,3272.661666759,-0.142,0.045,0.995,1.892,40.894,-2.258
3272673649225,3272671649225,3272.673649225,3272.671649225,-0.142,0.045,0.995,2.136,46.387,-2.625
3272683667274,3272681667274,3272.683667274,3272.681667274,-0.142,0.045,0.995,2.197,49.683,-2.808
3272693637198,3272691637198,3272.693637198,3272.691637198,-0.142,0.045,0.995,2.197,50.781,-2.686
3272704641361,3272702641361,3272.704641361,3272.702641361,-0.142,0.045,0.995,2.197,49.927,-2.808
3272714658243,3272712658243,3272.714658243,3272.712658243,-0.142,0.045,0.995,2.075,47.363,-2.747
3272724676292,3272722676292,3272.724676292,3272.722676292,-0.142,0.045,0.995,1.831,42.847,-2.441
3272734614425,3272732614425,3272.734614425,3272.732614425,-0.142,0.045,0.995,1.587,36.621,-2.136
3272744600099,3272742600099,3272.744600099,3272.742600099,-0.102,0.044,0.989,1.282,28.992,-1.77
3272754599482,3272752599482,3272.754599482,3272.752599482,-0.102,0.044,0.989,0.854,19.714,-1.221
3272764609948,3272762609948,3272.764609948,3272.762609948,-0.102,0.044,0.989,0.427,8.911,-0.671
3272774599414,3272772599414,3272.774599414,3272.772599414,-0.102,0.044,0.989,0.0,-2.686,-0.061
3272784600838,3272782600838,3272.784600838,3272.782600838,-0.102,0.044,0.989,-0.61,-15.808,0.732
3272795599750,3272793599750,3272.79559975,3272.79359975,-0.102,0.044,0.989,-1.099,-27.161,1.099
3272805612841,3272803612841,3272.805612841,3272.803612841,-0.102,0.044,0.989,-1.526,-37.415,1.648
3272815569057,3272813569057,3272.815569057,3272.813569057,-0.102,0.044,0.989,-1.953,-46.326,2.136
3272825660606,3272823660606,3272.825660606,3272.823660606,-0.102,0.044,0.989,-2.258,-53.772,2.502
3272835671655,3272833671655,3272.835671655,3272.833671655,-0.102,0.044,0.989,-2.502,-59.143,2.808
3272845672787,3272843672787,3272.845672787,3272.843672787,-0.102,0.044,0.989,-2.747,-62.378,2.991
3272855601295,3272853601295,3272.855601295,3272.853601295,-0.102,0.044,0.989,-2.869,-63.538,3.113
3272865671261,3272863671261,3272.865671261,3272.863671261,-0.102,0.044,0.989,-2.869,-62.378,3.052
3272875629810,3272873629810,3272.87562981,3272.87362981,-0.188,0.046,0.991,-2.686,-58.899,3.052
3272886666931,3272884666931,3272.886666931,3272.884666931,-0.188,0.046,0.991,-2.38,-53.528,2.686
3272896672146,3272894672146,3272.896672146,3272.894672146,-0.188,0.046,0.991,-2.014,-46.021,2.258
3272906596280,3272904596280,3272.90659628,3272.90459628,-0.188,0.046,0.991,-1.587,-36.804,1.831
3272916700953,3272914700953,3272.916700953,3272.914700953,-0.188,0.046,0.991,-1.099,-26.001,1.343
3272926594753,3272924594753,3272.926594753,3272.924594753,-0.188,0.046,0.991,-0.61,-14.099,0.671
3272936672010,3272934672010,3272.93667201,3272.93467201,-0.188,0.046,0.991,0.0,-1.587,0.0
3272946599060,3272944599060,3272.94659906,3272.94459906,-0.188,0.046,0.991,0.488,10.498,-0.671
3272956686233,3272954686233,3272.956686233,3272.954686233,-0.188,0.046,0.991,0.977,21.545,-1.282
3272966619700,3272964619700,3272.9666197,3272.9646197,-0.188,0.046,0.991,1.404,31.189,-1.77
3272976642124,3272974642124,3272.976642124,3272.974642124,-0.188,0.046,0.991,1.831,39.734,-2.014
3272987707244,3272985707244,3272.987707244,3272.985707244,-0.188,0.046,0.991,2.136,45.715,-2.502
3272997633710,3272995633710,3272.99763371,3272.99563371,-0.188,0.046,0.991,2.38,50.049,-2.808
3273007630759,3273005630759,3273.007630759,3273.005630759,-0.079,0.043,0.989,2.502,52.368,-2.93
3273017640642,3273015640642,3273.017640642,3273.015640642,-0.079,0.043,0.989,2.441,52.734,-2.991
3273027637983,3273025637983,3273.027637983,3273.025637983,-0.079,0.043,0.989,2.319,50.903,-2.93
3273037632699,3273035632699,3273.037632699,3273.035632699,-0.079,0.043,0.989,2.136,46.753,-2.625
3273047707330,3273045707330,3273.04770733,3273.04570733,-0.079,0.043,0.989,1.831,40.466,-2.258
3273057631755,3273055631755,3273.057631755,3273.055631755,-0.079,0.043,0.989,1.526,32.288,-1.892
3273067650096,3273065650096,3273.067650096,3273.065650096,-0.079,0.043,0.989,1.038,21.179,-1.16
3273078705008,3273076705008,3273.078705008,3273.076705008,-0.079,0.043,0.989,0.488,9.583,-0.793
3273088705849,3273086705849,3273.088705849,3273.086705849,-0.079,0.043,0.989,0.0,-2.869,-0.122
3273098703190,3273096703190,3273.09870319,3273.09670319,-0.079,0.043,0.989,-0.61,-15.381,0.427
3273108641906,3273106641906,3273.108641906,3273.106641906,-0.079,0.043,0.989,-1.16,-27.161,1.099
3273118629622,3273116629622,3273.118629622,3273.116629622,-0.079,0.043,0.989,-1.587,-37.476,1.648
3273128636588,3273126636588,3273.128636588,3273.126636588,-0.125,0.045,0.994,-1.953,-46.021,2.075
3273138727553,3273136727553,3273.138727553,3273.136727553,-0.125,0.045,0.994,-2.38,-52.734,2.38
3273148740643,3273146740643,3273.148740643,3273.146740643,-0.125,0.045,0.994,-2.625,-57.129,2.625
3273158714360,3273156714360,3273.15871436,3273.15671436,-0.125,0.045,0.994,-2.747,-59.143,2.808
3273169654356,3273167654356,3273.169654356,3273.167654356,-0.125,0.045,0.994,-2.686,-58.411,2.808
3273179603864,3273177603864,3273.179603864,3273.177603864,-0.125,0.045,0.994,-2.441,-54.993,2.686
3273189555706,3273187555706,3273.189555706,3273.187555706,-0.125,0.045,0.994,-2.197,-49.316,2.441
3273199597963,3273197597963,3273.199597963,3273.197597963,-0.125,0.045,0.994,-1.831,-41.687,2.136
3273209670553,3273207670553,3273.209670553,3273.207670553,-0.125,0.045,0.994,-1.465,-32.288,1.709
3273219614519,3273217614519,3273.219614519,3273.217614519,-0.125,0.045,0.994,-0.977,-21.179,1.099
3273229548861,3273227548861,3273.229548861,3273.227548861,-0.125,0.045,0.994,-0.366,-9.033,0.427
3273239542702,3273237542702,3273.239542702,3273.237542702,-0.125,0.045,0.994,0.122,3.418,-0.183
3273249652625,3273247652625,3273.249652625,3273.247652625,-0.125,0.045,0.994,0.793,16.907,-0.977
3273260622371,3273258622371,3273.260622371,3273.258622371,-0.115,0.044,0.994,1.282,28.015,-1.587
3273270599587,3273268599587,3273.270599587,3273.268599587,-0.115,0.044,0.994,1.648,37.537,-2.136
3273280593136,3273278593136,3273.280593136,3273.278593136,-0.115,0.044,0.994,2.014,45.227,-2.502
3273290588435,3273288588435,3273.290588435,3273.288588435,-0.115,0.044,0.994,2.319,50.659,-2.808
3273300612026,3273298612026,3273.300612026,3273.298612026,-0.115,0.044,0.994,2.563,54.199,-2.991
3273310603825,3273308603825,3273.310603825,3273.308603825,-0.115,0.044,0.994,2.625,55.542,-3.174
3273320598541,3273318598541,3273.320598541,3273.318598541,-0.115,0.044,0.994,2.563,54.504,-3.052
3273330592965,3273328592965,3273.330592965,3273.328592965,-0.115,0.044,0.994,2.38,51.147,-2.869
3273340605764,3273338605764,3273.340605764,3273.338605764,-0.115,0.044,0.994,2.075,44.922,-2.502
3273351623635,3273349623635,3273.351623635,3273.349623635,-0.115,0.044,0.994,1.709,37.292,-2.075
3273361601143,3273359601143,3273.361601143,3273.359601143,-0.115,0.044,0.994,1.282,28.259,-1.648
3273371664108,3273369664108,3273.371664108,3273.369664108,-0.115,0.044,0.994,0.854,17.883,-1.099
3273381641616,3273379641616,3273.381641616,3273.379641616,-0.072,0.043,0.99,0.366,6.409,-0.549
3273391632832,3273389632832,3273.391632832,3273.389632832,-0.072,0.043,0.99,-0.061,-5.676,-0.061
3273401593423,3273399593423,3273.401593423,3273.399593423,-0.072,0.043,0.99,-0.61,-17.944,0.427
3273411624305,3273409624305,3273.411624305,3273.409624305,-0.072,0.043,0.99,-1.16,-29.663,0.977
3273421654021,3273419654021,3273.421654021,3273.419654021,-0.072,0.043,0.99,-1.709,-40.344,1.587
3273431596237,3273429596237,3273.431596237,3273.429596237,-0.072,0.043,0.99,-2.197,-50.232,2.136
3273441655119,3273439655119,3273.441655119,3273.439655119,-0.072,0.043,0.99,-2.625,-57.068,2.563
3273452588699,3273450588699,3273.452588699,3273.450588699,-0.072,0.043,0.99,-2.869,-61.89,2.869
3273462588956,3273460588956,3273.462588956,3273.460588956,-0.072,0.043,0.99,-2.93,-64.453,2.991
3273472586589,3273470586589,3273.472586589,3273.470586589,-0.072,0.043,0.99,-2.869,-64.636,2.93
3273482587721,3273480587721,3273.482587721,3273.480587721,-0.072,0.043,0.99,-2.747,-62.866,2.869
3273492621812,3273490621812,3273.492621812,3273.490621812,-0.072,0.043,0.99,-2.686,-59.143,2.869
3273502615653,3273500615653,3273.502615653,3273.500615653,-0.072,0.043,0.99,-2.441,-53.284,2.625
3273512608619,3273510608619,3273.512608619,3273.510608619,-0.15,0.045,0.999,-2.014,-44.556,2.197
3273523590031,3273521590031,3273.523590031,3273.521590031,-0.15,0.045,0.999,-1.526,-35.156,1.709
3273533592039,3273531592039,3273.533592039,3273.531592039,-0.15,0.045,0.999,-1.038,-24.597,1.221
3273543596963,3273541596963,3273.543596963,3273.541596963,-0.15,0.045,0.999,-0.549,-13.123,0.61
3273553614137,3273551614137,3273.553614137,3273.551614137,-0.15,0.045,0.999,0.0,-1.16,0.0
3273563592228,3273561592228,3273.563592228,3273.561592228,-0.15,0.045,0.999,0.427,10.742,-0.549
3273573600944,3273571600944,3273.573600944,3273.571600944,-0.15,0.045,0.999,0.977,22.034,-1.099
3273583590993,3273581590993,3273.583590993,3273.581590993,-0.15,0.045,0.999,1.465,32.349,-1.587
3273593589501,3273591589501,3273.593589501,3273.591589501,-0.15,0.045,0.999,1.892,41.565,-2.136
3273603596467,3273601596467,3273.603596467,3273.601596467,-0.15,0.045,0.999,2.258,50.11,-2.502
3273614635629,3273612635629,3273.614635629,3273.612635629,-0.15,0.045,0.999,2.502,56.519,-2.991
3273624628886,3273622628886,3273.624628886,3273.622628886,-0.15,0.045,0.999,2.747,61.401,-3.174
3273634614560,3273632614560,3273.63461456,3273.63261456,-0.027,0.042,0.987,2.93,64.697,-3.296
3273644626485,3273642626485,3273.644626485,3273.642626485,-0.027,0.042,0.987,3.052,66.65,-3.418
3273654631117,3273652631117,3273.654631117,3273.652631117,-0.027,0.042,0.987,3.113,67.139,-3.54
3273664700790,3273662700790,3273.66470079,3273.66270079,-0.027,0.042,0.987,2.991,65.979,-3.54
3273674664590,3273672664590,3273.67466459,3273.67266459,-0.027,0.042,0.987,2.808,63.11,-3.357
3273684651139,3273682651139,3273.684651139,3273.682651139,-0.027,0.042,0.987,2.563,58.777,-3.113
3273694642355,3273692642355,3273.694642355,3273.692642355,-0.027,0.042,0.987,2.319,52.734,-2.686
3273705659934,3273703659934,3273.705659934,3273.703659934,-0.027,0.042,0.987,2.014,46.021,-2.502
3273715642109,3273713642109,3273.715642109,3273.713642109,-0.027,0.042,0.987,1.648,38.086,-2.075
3273725637699,3273723637699,3273.725637699,3273.723637699,-0.027,0.042,0.987,1.221,29.358,-1.587
3273735661290,3273733661290,3273.73566129,3273.73366129,-0.027,0.042,0.987,0.854,20.386,-1.16
3273745698589,3273743698589,3273.745698589,3273.743698589,-0.027,0.042,0.987,0.427,11.169,-0.671
3273755716346,3273753716346,3273.755716346,3273.753716346,-0.027,0.042,0.987,0.061,2.014,-0.183
3273765721562,3273763721562,3273.765721562,3273.763721562,-0.114,0.044,0.994,-0.244,-6.653,0.183
3273775721528,3273773721528,3273.775721528,3273.773721528,-0.114,0.044,0.994,-0.549,-14.709,0.549
3273785740452,3273783740452,3273.785740452,3273.783740452,-0.114,0.044,0.994,-0.916,-22.583,1.099
3273795703376,3273793703376,3273.795703376,3273.793703376,-0.114,0.044,0.994,-1.16,-28.809,1.221
3273806782205,3273804782205,3273.806782205,3273.804782205,-0.114,0.044,0.994,-1.404,-34.119,1.526
3273816762046,3273814762046,3273.816762046,3273.814762046,-0.114,0.044,0.994,-1.587,-38.574,1.709
3273826708345,3273824708345,3273.826708345,3273.824708345,-0.114,0.044,0.994,-1.77,-42.175,1.892
3273836743603,3273834743603,3273.836743603,3273.834743603,-0.114,0.044,0.994,-1.831,-44.922,2.014
3273846732777,3273844732777,3273.846732777,3273.844732777,-0.114,0.044,0.994,-1.953,-47.18,2.075
3273856800992,3273854800992,3273.856800992,3273.854800992,-0.114,0.044,0.994,-2.136,-48.828,2.197
3273866744958,3273864744958,3273.866744958,3273.864744958,-0.114,0.044,0.994,-2.197,-49.744,2.258
3273876691550,3273874691550,3273.87669155,3273.87469155,-0.114,0.044,0.994,-2.258,-50.171,2.441
3273886693266,3273884693266,3273.886693266,3273.884693266,-0.181,0.045,0.991,-2.258,-50.11,2.258
3273897764219,3273895764219,3273.897764219,3273.895764219,-0.181,0.045,0.991,-2.136,-49.194,2.197
3273907770018,3273905770018,3273.907770018,3273.905770018,-0.181,0.045,0.991,-2.014,-47.607,2.075
3273917691527,3273915691527,3273.917691527,3273.915691527,-0.181,0.045,0.991,-1.892,-45.776,2.075
3273927711617,3273925711617,3273.927711617,3273.925711617,-0.181,0.045,0.991,-1.831,-43.335,2.014
3273937643917,3273935643917,3273.937643917,3273.935643917,-0.181,0.045,0.991,-1.709,-40.222,1.892
3273947643883,3273945643883,3273.947643883,3273.945643883,-0.181,0.045,0.991,-1.587,-36.621,1.709
3273957617891,3273955617891,3273.957617891,3273.955617891,-0.181,0.045,0.991,-1.404,-31.921,1.648
3273967600065,3273965600065,3273.967600065,3273.965600065,-0.182,0.045,0.991,-1.16,-26.611,1.282
3273978588770,3273976588770,3273.97858877,3273.97658877,-0.181,0.045,0.991,-0.916,-20.203,0.977
3273988541778,3273986541778,3273.988541778,3273.986541778,-0.181,0.045,0.991,-0.549,-12.512,0.671
3273998612326,3273996612326,3273.998612326,3273.996612326,-0.181,0.045,0.991,-0.183,-3.54,0.244
3274008589542,3274006589542,3274.008589542,3274.006589542,-0.181,0.045,0.991,0.244,6.348,-0.183
3274018596216,3274016596216,3274.018596216,3274.016596216,-0.073,0.043,0.994,0.671,16.846,-0.671
