Timestamp,AccX,AccY,AccZ,AsX,AsY,AsZ,HX,HY,HZ,AngX,AngY,AngZ
2025-09-03 22:29:33.111429,-0.051,0.016,0.999,-0.549,0.0,-0.183,16.978,5.811,-46.241,0.885,2.903,-175.133
2025-09-03 22:29:33.132018,-0.051,0.016,1.0,-0.854,-0.122,-0.183,16.978,5.798,-46.241,0.87,2.901,-175.137
2025-09-03 22:29:33.154983,-0.051,0.016,1.0,0.61,-0.122,-0.183,16.991,5.863,-46.254,0.866,2.897,-175.141
2025-09-03 22:29:33.175923,-0.051,0.016,1.0,1.16,0.183,-0.061,16.978,5.85,-46.28,0.89,2.898,-175.145
2025-09-03 22:29:33.196223,-0.051,0.016,1.0,-0.183,0.549,-0.122,16.991,5.863,-46.267,0.903,2.907,-175.147
2025-09-03 22:29:33.216316,-0.051,0.016,1.0,-1.038,0.183,-0.183,16.991,5.863,-46.241,0.887,2.916,-175.151
2025-09-03 22:29:33.236315,-0.051,0.016,1.0,0.0,-0.427,-0.183,16.978,5.863,-46.254,0.876,2.912,-175.155
2025-09-03 22:29:33.256672,-0.051,0.016,1.0,0.732,-0.488,-0.122,16.978,5.824,-46.28,0.888,2.902,-175.158
2025-09-03 22:29:33.276798,-0.05,0.015,0.998,0.0,-0.061,-0.122,16.991,5.811,-46.267,0.897,2.896,-175.161
2025-09-03 22:29:33.297034,-0.05,0.015,0.998,-0.61,0.122,-0.122,16.978,5.876,-46.254,0.889,2.898,-175.165
2025-09-03 22:29:33.317060,-0.05,0.015,0.998,0.0,0.0,-0.183,16.965,5.876,-46.267,0.88,2.9,-175.168
2025-09-03 22:29:33.337434,-0.05,0.015,0.998,0.671,0.0,-0.122,16.978,5.876,-46.293,0.889,2.9,-175.172
2025-09-03 22:29:33.357736,-0.05,0.015,0.998,0.183,0.183,-0.122,16.965,5.863,-46.254,0.899,2.902,-175.175
2025-09-03 22:29:33.377842,-0.05,0.015,0.998,-0.427,0.122,-0.122,16.965,5.85,-46.241,0.896,2.906,-175.178
2025-09-03 22:29:33.398137,-0.051,0.016,1.0,-0.183,-0.122,-0.183,16.991,5.837,-46.267,0.887,2.905,-175.182
2025-09-03 22:29:33.418390,-0.051,0.016,1.0,0.488,-0.183,-0.122,17.004,5.85,-46.267,0.891,2.9,-175.186
2025-09-03 22:29:33.438735,-0.051,0.016,1.0,0.305,0.061,-0.122,16.991,5.837,-46.254,0.901,2.899,-175.189
2025-09-03 22:29:33.459239,-0.051,0.016,1.0,-0.183,0.183,-0.122,16.978,5.915,-46.28,0.901,2.903,-175.192
2025-09-03 22:29:33.479310,-0.051,0.016,1.0,-0.122,0.0,-0.183,16.991,5.902,-46.267,0.896,2.904,-175.196
2025-09-03 22:29:33.499877,-0.051,0.016,1.0,0.305,-0.061,-0.122,16.978,5.876,-46.28,0.899,2.902,-175.2
2025-09-03 22:29:33.519946,-0.051,0.015,0.999,0.244,0.061,-0.122,16.965,5.863,-46.267,0.906,2.902,-175.203
2025-09-03 22:29:33.540196,-0.051,0.015,0.999,-0.122,0.122,-0.122,16.978,5.85,-46.267,0.906,2.905,-175.206
2025-09-03 22:29:33.560242,-0.051,0.015,0.999,-0.916,-0.061,-0.183,16.991,5.863,-46.254,0.896,2.905,-175.21
2025-09-03 22:29:33.580521,-0.051,0.015,0.999,-0.61,-0.244,-0.183,17.004,5.902,-46.254,0.875,2.902,-175.214
2025-09-03 22:29:33.600750,-0.051,0.015,0.999,0.549,-0.244,-0.122,16.926,5.928,-46.28,0.877,2.895,-175.218
2025-09-03 22:29:33.620858,-0.051,0.015,0.999,1.099,0.122,-0.061,16.991,5.876,-46.293,0.895,2.894,-175.221
2025-09-03 22:29:33.641336,-0.05,0.015,1.0,-0.488,0.488,-0.122,16.952,5.876,-46.267,0.903,2.902,-175.223
2025-09-03 22:29:33.661693,-0.05,0.015,1.0,-1.221,0.244,-0.183,16.965,5.915,-46.254,0.881,2.91,-175.228
2025-09-03 22:29:33.681716,-0.05,0.015,1.0,-0.183,-0.244,-0.183,16.965,5.876,-46.267,0.866,2.909,-175.232
2025-09-03 22:29:33.701951,-0.051,0.015,1.0,0.793,-0.305,-0.122,16.965,5.876,-46.306,0.876,2.901,-175.235
2025-09-03 22:29:33.722474,-0.051,0.015,1.0,0.244,0.0,-0.122,16.991,5.876,-46.267,0.888,2.897,-175.238
2025-09-03 22:29:33.742872,-0.051,0.015,1.0,-0.549,0.183,-0.122,16.991,5.915,-46.267,0.884,2.9,-175.241
2025-09-03 22:29:33.763120,-0.051,0.015,1.0,-0.366,0.0,-0.183,16.991,5.928,-46.254,0.873,2.903,-175.245
2025-09-03 22:29:33.783177,-0.051,0.015,0.999,0.366,-0.061,-0.122,16.991,5.889,-46.254,0.874,2.901,-175.249
2025-09-03 22:29:33.803364,-0.051,0.015,0.999,0.366,0.061,-0.122,16.978,5.85,-46.254,0.882,2.901,-175.252
2025-09-03 22:29:33.823762,-0.051,0.015,0.999,-0.061,0.122,-0.122,16.991,5.85,-46.241,0.885,2.904,-175.255
2025-09-03 22:29:33.844011,-0.051,0.015,0.999,-0.305,-0.061,-0.183,16.965,5.863,-46.254,0.878,2.905,-175.259
2025-09-03 22:29:33.864328,-0.051,0.015,0.999,0.061,-0.122,-0.122,16.978,5.889,-46.254,0.875,2.902,-175.263
2025-09-03 22:29:33.884742,-0.051,0.015,0.999,0.305,0.0,-0.122,16.991,5.902,-46.254,0.879,2.901,-175.266
2025-09-03 22:29:33.904847,-0.05,0.015,0.999,0.122,0.122,-0.122,16.991,5.902,-46.267,0.884,2.903,-175.269
2025-09-03 22:29:33.925037,-0.05,0.015,0.999,-0.122,0.0,-0.183,16.978,5.85,-46.241,0.882,2.905,-175.272
2025-09-03 22:29:33.945704,-0.051,0.015,0.999,-0.061,-0.122,-0.183,16.965,5.85,-46.241,0.879,2.902,-175.276
2025-09-03 22:29:33.965684,-0.05,0.015,0.999,0.122,0.0,-0.122,16.965,5.85,-46.254,0.879,2.9,-175.28
2025-09-03 22:29:33.985925,-0.051,0.015,0.999,0.122,0.122,-0.122,16.991,5.85,-46.254,0.882,2.902,-175.283
2025-09-03 22:29:34.006048,-0.05,0.015,0.999,0.0,0.0,-0.122,16.978,5.889,-46.241,0.883,2.904,-175.286
2025-09-03 22:29:34.026297,-0.051,0.015,1.0,-0.061,-0.061,-0.183,16.965,5.889,-46.254,0.881,2.902,-175.29
2025-09-03 22:29:34.046623,-0.051,0.015,1.0,0.0,0.0,-0.122,16.991,5.902,-46.254,0.879,2.901,-175.294
2025-09-03 22:29:34.066670,-0.051,0.015,1.0,0.183,0.061,-0.122,17.017,5.876,-46.241,0.881,2.902,-175.297
2025-09-03 22:29:34.086918,-0.05,0.015,1.0,0.122,0.0,-0.122,16.978,5.85,-46.241,0.885,2.903,-175.3
2025-09-03 22:29:34.107040,-0.051,0.015,1.0,0.0,0.0,-0.122,17.017,5.863,-46.241,0.886,2.902,-175.304
2025-09-03 22:29:34.127292,-0.05,0.015,1.0,-0.061,0.0,-0.122,17.004,5.837,-46.254,0.883,2.902,-175.307
2025-09-03 22:29:34.147667,-0.05,0.014,0.999,0.061,0.0,-0.122,17.03,5.863,-46.254,0.882,2.902,-175.311
2025-09-03 22:29:34.167914,-0.05,0.014,0.999,0.183,0.0,-0.122,17.03,5.824,-46.267,0.885,2.902,-175.314
2025-09-03 22:29:34.187909,-0.05,0.014,0.999,0.061,0.0,0.0,17.017,5.889,-46.254,0.887,2.903,-175.317
2025-09-03 22:29:34.208283,-0.05,0.014,0.999,-0.061,0.0,-0.122,17.004,5.863,-46.241,0.885,2.903,-175.321
2025-09-03 22:29:34.228658,-0.05,0.014,0.999,0.0,0.0,-0.122,17.017,5.85,-46.241,0.883,2.902,-175.324
2025-09-03 22:29:34.248654,-0.05,0.014,0.999,0.183,0.0,-0.122,17.082,5.85,-46.254,0.886,2.901,-175.327
2025-09-03 22:29:34.268903,-0.05,0.014,0.999,0.0,0.061,-0.122,17.03,5.837,-46.241,0.888,2.903,-175.33
2025-09-03 22:29:34.289158,-0.05,0.015,1.0,-0.122,0.0,-0.122,17.017,5.876,-46.254,0.885,2.904,-175.334
2025-09-03 22:29:34.309276,-0.05,0.015,1.0,0.0,-0.061,-0.183,16.991,5.902,-46.254,0.882,2.902,-175.337
2025-09-03 22:29:34.329648,-0.05,0.015,1.0,0.183,0.0,-0.122,16.978,5.902,-46.254,0.884,2.901,-175.341
2025-09-03 22:29:34.349771,-0.05,0.015,1.0,0.122,0.122,-0.122,16.991,5.798,-46.241,0.887,2.903,-175.344
2025-09-03 22:29:34.369896,-0.05,0.015,1.0,-0.061,0.0,-0.122,17.017,5.837,-46.215,0.886,2.905,-175.347
2025-09-03 22:29:34.390144,-0.05,0.015,1.0,0.0,-0.061,-0.183,17.017,5.837,-46.228,0.884,2.904,-175.351
2025-09-03 22:29:34.410394,-0.05,0.014,0.999,0.122,0.0,-0.122,17.03,5.863,-46.254,0.884,2.902,-175.354
2025-09-03 22:29:34.430765,-0.05,0.014,0.999,0.183,0.061,-0.122,17.043,5.889,-46.254,0.887,2.903,-175.357
2025-09-03 22:29:34.450887,-0.05,0.014,0.999,0.0,0.0,-0.122,17.017,5.889,-46.241,0.889,2.905,-175.36
2025-09-03 22:29:34.471091,-0.05,0.014,0.999,0.0,-0.061,-0.183,16.965,5.902,-46.254,0.887,2.904,-175.363
2025-09-03 22:29:34.491258,-0.05,0.014,0.999,0.061,0.0,-0.122,16.991,5.889,-46.254,0.886,2.902,-175.367
2025-09-03 22:29:34.511636,-0.05,0.014,0.999,0.183,0.061,-0.122,17.017,5.863,-46.254,0.888,2.902,-175.37
2025-09-03 22:29:34.531760,-0.05,0.014,0.999,0.122,0.061,-0.122,17.017,5.785,-46.28,0.891,2.904,-175.373
2025-09-03 22:29:34.552005,-0.05,0.014,0.999,0.0,0.0,0.0,17.004,5.863,-46.215,0.891,2.904,-175.377
2025-09-03 22:29:34.572254,-0.05,0.014,0.999,0.0,0.0,-0.122,16.991,5.876,-46.228,0.89,2.903,-175.381
2025-09-03 22:29:34.592628,-0.05,0.014,0.999,0.122,0.0,-0.122,17.004,5.889,-46.267,0.891,2.902,-175.384
2025-09-03 22:29:34.612753,-0.05,0.014,0.999,0.061,0.061,-0.122,17.004,5.902,-46.267,0.893,2.904,-175.388
2025-09-03 22:29:34.632753,-0.05,0.014,0.999,0.0,0.0,-0.122,16.991,5.863,-46.254,0.893,2.904,-175.391
2025-09-03 22:29:34.653124,-0.05,0.015,1.0,0.0,-0.061,-0.183,16.952,5.85,-46.254,0.891,2.903,-175.395
2025-09-03 22:29:34.673124,-0.05,0.015,1.0,0.061,0.0,-0.122,17.004,5.85,-46.254,0.892,2.902,-175.398
2025-09-03 22:29:34.693507,-0.05,0.015,1.0,0.061,0.061,-0.122,16.991,5.863,-46.241,0.893,2.904,-175.402
2025-09-03 22:29:34.713618,-0.05,0.015,1.0,0.0,0.0,-0.122,17.004,5.85,-46.241,0.893,2.905,-175.405
2025-09-03 22:29:34.733867,-0.05,0.015,1.0,0.0,-0.061,-0.122,16.991,5.876,-46.228,0.892,2.904,-175.408
2025-09-03 22:29:34.754114,-0.05,0.015,1.0,0.0,0.0,-0.122,16.991,5.902,-46.241,0.891,2.903,-175.412
2025-09-03 22:29:34.774239,-0.05,0.015,1.0,0.0,0.0,-0.122,16.991,5.876,-46.254,0.891,2.903,-175.415
2025-09-03 22:29:34.794565,-0.05,0.014,0.999,0.0,0.0,-0.122,17.03,5.85,-46.254,0.891,2.904,-175.418
2025-09-03 22:29:34.814735,-0.05,0.014,0.999,0.0,0.0,-0.122,17.017,5.824,-46.241,0.891,2.903,-175.422
2025-09-03 22:29:34.834859,-0.05,0.014,0.999,0.0,0.0,-0.122,16.978,5.889,-46.241,0.891,2.903,-175.425
2025-09-03 22:29:34.855107,-0.05,0.014,0.999,0.061,0.0,-0.122,17.017,5.928,-46.241,0.891,2.903,-175.429
2025-09-03 22:29:34.875356,-0.05,0.014,0.999,0.122,0.0,-0.122,17.004,5.915,-46.254,0.892,2.904,-175.432
2025-09-03 22:29:34.895729,-0.05,0.014,0.999,0.122,0.0,-0.122,16.965,5.876,-46.254,0.894,2.904,-175.435
2025-09-03 22:29:34.915853,-0.05,0.014,0.999,0.061,0.0,-0.122,16.991,5.863,-46.215,0.895,2.904,-175.439
2025-09-03 22:29:34.936102,-0.05,0.014,0.999,0.0,0.0,-0.122,17.017,5.85,-46.228,0.895,2.904,-175.442
2025-09-03 22:29:34.956224,-0.051,0.014,0.999,0.0,0.0,-0.122,17.017,5.863,-46.241,0.895,2.904,-175.445
2025-09-03 22:29:34.976599,-0.05,0.014,0.999,0.0,0.0,-0.122,17.004,5.889,-46.228,0.894,2.903,-175.449
2025-09-03 22:29:34.996721,-0.05,0.014,0.999,0.0,0.0,-0.122,17.004,5.863,-46.228,0.893,2.903,-175.452
2025-09-03 22:29:35.016969,-0.05,0.014,0.999,0.0,0.0,-0.122,16.965,5.915,-46.241,0.892,2.903,-175.456
2025-09-03 22:29:35.037091,-0.05,0.014,1.0,0.0,0.0,-0.122,16.991,5.915,-46.254,0.891,2.903,-175.459
2025-09-03 22:29:35.057590,-0.05,0.014,1.0,0.0,0.0,-0.122,16.978,5.889,-46.241,0.889,2.903,-175.463
2025-09-03 22:29:35.077590,-0.05,0.014,1.0,0.061,0.0,-0.122,16.991,5.798,-46.228,0.889,2.903,-175.466
2025-09-03 22:29:35.097715,-0.05,0.014,1.0,0.122,0.0,-0.122,16.978,5.85,-46.228,0.89,2.903,-175.469
2025-09-03 22:29:35.117839,-0.05,0.014,1.0,0.0,0.0,-0.122,16.991,5.889,-46.254,0.891,2.903,-175.473
2025-09-03 22:29:35.138041,-0.05,0.014,1.0,0.0,0.0,-0.122,16.991,5.928,-46.254,0.89,2.903,-175.476
2025-09-03 22:29:35.158210,-0.05,0.014,1.0,0.0,0.0,-0.183,17.017,5.915,-46.241,0.889,2.903,-175.48
2025-09-03 22:29:35.178583,-0.05,0.014,0.999,0.061,0.0,-0.122,17.004,5.902,-46.267,0.889,2.902,-175.483
2025-09-03 22:29:35.198830,-0.05,0.014,0.999,0.061,0.0,-0.122,16.978,5.915,-46.254,0.889,2.903,-175.487
2025-09-03 22:29:35.219078,-0.05,0.014,0.999,0.0,0.0,-0.122,17.004,5.889,-46.228,0.889,2.904,-175.49
2025-09-03 22:29:35.239578,-0.05,0.014,0.999,0.0,0.0,-0.183,17.004,5.863,-46.241,0.889,2.903,-175.494
2025-09-03 22:29:35.259575,-0.05,0.014,0.999,0.0,0.0,-0.122,17.004,5.824,-46.241,0.889,2.903,-175.497
2025-09-03 22:29:35.279699,-0.05,0.014,0.999,-0.061,0.0,-0.122,17.004,5.915,-46.228,0.887,2.903,-175.501
2025-09-03 22:29:35.299824,-0.05,0.014,1.0,-0.061,0.0,-0.183,16.965,5.928,-46.267,0.884,2.903,-175.504
2025-09-03 22:29:35.320141,-0.05,0.014,1.0,0.0,0.0,0.0,17.004,5.915,-46.28,0.882,2.902,-175.508
2025-09-03 22:29:35.340264,-0.05,0.014,1.0,0.061,0.0,-0.122,17.004,5.889,-46.254,0.883,2.902,-175.512
2025-09-03 22:29:35.360638,-0.05,0.014,1.0,0.061,0.0,-0.122,17.017,5.85,-46.228,0.884,2.902,-175.515
2025-09-03 22:29:35.380762,-0.05,0.014,1.0,0.0,0.0,-0.122,16.978,5.889,-46.254,0.884,2.903,-175.518
2025-09-03 22:29:35.400885,-0.05,0.014,1.0,0.061,0.0,-0.122,17.004,5.928,-46.241,0.885,2.901,-175.522
2025-09-03 22:29:35.421045,-0.05,0.014,0.999,0.061,0.0,-0.122,16.991,5.915,-46.241,0.886,2.901,-175.526
2025-09-03 22:29:35.441436,-0.05,0.014,0.999,0.0,0.0,-0.122,16.991,5.941,-46.241,0.886,2.901,-175.529
2025-09-03 22:29:35.461694,-0.05,0.014,0.999,0.0,0.0,-0.122,16.978,5.902,-46.241,0.884,2.901,-175.532
2025-09-03 22:29:35.481934,-0.05,0.014,0.999,0.0,0.0,-0.183,16.926,5.902,-46.28,0.883,2.901,-175.536
2025-09-03 22:29:35.502056,-0.05,0.014,0.999,0.0,0.0,-0.122,16.965,5.863,-46.28,0.882,2.901,-175.539
2025-09-03 22:29:35.522554,-0.05,0.014,0.999,0.0,0.0,-0.122,16.978,5.863,-46.254,0.881,2.9,-175.542
2025-09-03 22:29:35.542553,-0.05,0.014,0.999,0.0,0.0,-0.122,16.978,5.837,-46.228,0.88,2.9,-175.546
2025-09-03 22:29:35.562756,-0.05,0.014,1.0,0.0,0.0,-0.122,16.978,5.941,-46.241,0.879,2.9,-175.549
2025-09-03 22:29:35.582924,-0.05,0.014,0.999,0.0,0.0,0.0,17.004,5.941,-46.241,0.877,2.9,-175.553
2025-09-03 22:29:35.603173,-0.05,0.014,0.999,0.0,0.0,-0.122,16.965,5.876,-46.267,0.876,2.9,-175.556
2025-09-03 22:29:35.623570,-0.05,0.014,0.999,0.0,0.0,-0.122,16.952,5.876,-46.267,0.876,2.9,-175.559
2025-09-03 22:29:35.643618,-0.05,0.014,0.999,0.0,0.0,-0.122,16.978,5.889,-46.228,0.875,2.9,-175.563
2025-09-03 22:29:35.663948,-0.05,0.014,0.999,0.0,0.0,-0.122,16.965,5.889,-46.267,0.874,2.899,-175.566
2025-09-03 22:29:35.684193,-0.05,0.014,0.999,0.0,0.0,-0.122,16.978,5.876,-46.28,0.873,2.899,-175.569
2025-09-03 22:29:35.704610,-0.05,0.014,0.999,0.0,0.0,-0.122,16.965,5.915,-46.254,0.872,2.899,-175.573
2025-09-03 22:29:35.724733,-0.05,0.014,0.999,0.0,0.0,-0.122,16.965,5.889,-46.241,0.871,2.899,-175.576
2025-09-03 22:29:35.744811,-0.05,0.014,0.999,0.0,0.0,-0.122,16.926,5.915,-46.254,0.87,2.899,-175.58
2025-09-03 22:29:35.765061,-0.05,0.014,0.999,0.0,0.0,-0.122,16.991,5.902,-46.241,0.869,2.899,-175.583
2025-09-03 22:29:35.785605,-0.05,0.014,0.999,0.0,0.0,-0.122,16.991,5.889,-46.241,0.868,2.899,-175.586
2025-09-03 22:29:35.805616,-0.05,0.014,0.999,0.0,0.0,-0.122,17.004,5.824,-46.241,0.867,2.899,-175.59
2025-09-03 22:29:35.825852,-0.05,0.014,0.999,0.0,0.0,-0.122,16.991,5.876,-46.228,0.866,2.898,-175.593
2025-09-03 22:29:35.846029,-0.05,0.014,0.999,0.0,0.0,-0.122,16.978,5.902,-46.241,0.866,2.898,-175.597
2025-09-03 22:29:35.866529,-0.05,0.014,0.999,0.0,0.0,-0.122,16.978,5.902,-46.28,0.865,2.898,-175.6
2025-09-03 22:29:35.886526,-0.05,0.014,0.999,0.0,0.0,-0.183,17.004,5.902,-46.241,0.864,2.898,-175.604
2025-09-03 22:29:35.906650,-0.05,0.014,0.999,0.0,0.0,-0.122,16.965,5.85,-46.241,0.863,2.898,-175.607
2025-09-03 22:29:35.927023,-0.05,0.014,0.999,0.0,0.0,-0.122,16.952,5.85,-46.228,0.863,2.898,-175.611
2025-09-03 22:29:35.947273,-0.05,0.014,0.999,0.0,0.0,-0.122,16.991,5.863,-46.241,0.862,2.898,-175.614
2025-09-03 22:29:35.967397,-0.05,0.014,0.999,0.0,0.0,-0.122,16.991,5.876,-46.267,0.861,2.898,-175.618
2025-09-03 22:29:35.987646,-0.05,0.014,0.999,0.0,0.0,-0.122,17.004,5.889,-46.254,0.86,2.898,-175.621
2025-09-03 22:29:36.007891,-0.05,0.014,0.999,0.0,0.0,-0.122,16.978,5.902,-46.228,0.859,2.898,-175.624
2025-09-03 22:29:36.028139,-0.05,0.014,0.999,0.0,0.0,-0.122,16.978,5.889,-46.241,0.859,2.897,-175.628
2025-09-03 22:29:36.048538,-0.05,0.014,0.999,0.0,0.0,-0.122,16.991,5.85,-46.254,0.858,2.897,-175.631
2025-09-03 22:29:36.068583,-0.05,0.014,0.999,0.0,0.0,-0.122,17.043,5.824,-46.228,0.857,2.897,-175.635
2025-09-03 22:29:36.088955,-0.05,0.014,0.999,0.0,0.0,-0.122,16.978,5.824,-46.241,0.857,2.897,-175.638
2025-09-03 22:29:36.109204,-0.05,0.014,0.999,0.0,0.0,-0.122,16.978,5.876,-46.241,0.856,2.897,-175.642
2025-09-03 22:29:36.129577,-0.05,0.014,0.999,0.0,0.0,-0.122,16.991,5.889,-46.241,0.856,2.897,-175.645
2025-09-03 22:29:36.149579,-0.05,0.014,0.999,0.0,0.0,-0.122,16.991,5.928,-46.241,0.855,2.897,-175.648
2025-09-03 22:29:36.169700,-0.05,0.014,0.999,0.0,0.0,-0.122,16.965,5.85,-46.254,0.854,2.897,-175.652
2025-09-03 22:29:36.189948,-0.05,0.014,1.0,0.0,0.0,-0.122,16.991,5.85,-46.228,0.854,2.897,-175.655
2025-09-03 22:29:36.210196,-0.05,0.014,1.0,0.0,0.0,-0.122,16.991,5.824,-46.228,0.853,2.897,-175.659
2025-09-03 22:29:36.230570,-0.05,0.014,1.0,0.0,0.0,-0.122,17.004,5.85,-46.241,0.853,2.897,-175.662
2025-09-03 22:29:36.250817,-0.05,0.014,1.0,0.0,0.0,-0.122,17.043,5.876,-46.254,0.852,2.897,-175.666
2025-09-03 22:29:36.270818,-0.05,0.014,1.0,0.0,0.0,-0.122,17.004,5.889,-46.228,0.852,2.896,-175.669
2025-09-03 22:29:36.291189,-0.05,0.014,1.0,0.0,0.0,-0.122,16.952,5.889,-46.254,0.851,2.896,-175.672
2025-09-03 22:29:36.311566,-0.05,0.014,0.999,0.0,0.0,-0.122,16.965,5.902,-46.241,0.851,2.896,-175.676
2025-09-03 22:29:36.331490,-0.05,0.014,0.999,0.0,0.0,-0.122,16.991,5.863,-46.241,0.85,2.896,-175.679
2025-09-03 22:29:36.351741,-0.05,0.014,0.999,0.0,0.0,-0.122,16.991,5.798,-46.228,0.85,2.896,-175.682
2025-09-03 22:29:36.371989,-0.05,0.014,0.999,0.0,0.0,-0.122,17.004,5.837,-46.215,0.849,2.896,-175.686
2025-09-03 22:29:36.392112,-0.05,0.014,0.999,0.0,0.0,-0.122,16.991,5.876,-46.228,0.849,2.896,-175.689
2025-09-03 22:29:36.412484,-0.05,0.014,0.999,0.0,0.0,-0.122,16.991,5.889,-46.254,0.849,2.896,-175.692
2025-09-03 22:29:36.432608,-0.05,0.014,1.0,0.0,0.0,-0.122,17.017,5.889,-46.254,0.848,2.896,-175.696
2025-09-03 22:29:36.452984,-0.05,0.014,1.0,0.0,0.0,-0.122,16.952,5.85,-46.241,0.848,2.896,-175.699
2025-09-03 22:29:36.472982,-0.05,0.014,1.0,0.0,0.0,-0.122,16.965,5.863,-46.241,0.847,2.895,-175.703
2025-09-03 22:29:36.493479,-0.05,0.014,1.0,0.0,0.0,-0.122,16.991,5.837,-46.215,0.847,2.895,-175.706
2025-09-03 22:29:36.513605,-0.05,0.014,1.0,0.0,0.0,-0.122,16.991,5.85,-46.241,0.847,2.895,-175.709
2025-09-03 22:29:36.533726,-0.05,0.014,1.0,0.0,0.0,-0.122,16.978,5.811,-46.254,0.846,2.895,-175.712
2025-09-03 22:29:36.553931,-0.05,0.014,1.0,0.0,0.0,0.0,17.017,5.876,-46.228,0.846,2.895,-175.715
2025-09-03 22:29:36.574474,-0.05,0.014,0.999,0.0,0.0,-0.122,17.004,5.876,-46.215,0.845,2.895,-175.719
2025-09-03 22:29:36.594595,-0.05,0.014,0.999,0.0,0.0,-0.122,16.965,5.902,-46.241,0.845,2.895,-175.722
2025-09-03 22:29:36.614844,-0.05,0.014,0.999,0.0,0.0,-0.122,16.991,5.85,-46.254,0.845,2.895,-175.726
2025-09-03 22:29:36.635091,-0.05,0.014,0.999,0.0,0.0,0.0,16.991,5.85,-46.228,0.844,2.895,-175.729
2025-09-03 22:29:36.655467,-0.05,0.014,0.999,0.0,0.0,-0.122,16.991,5.863,-46.228,0.844,2.895,-175.733
2025-09-03 22:29:36.675465,-0.05,0.014,0.999,0.0,0.0,-0.122,16.978,5.941,-46.254,0.844,2.895,-175.736
2025-09-03 22:29:36.695712,-0.05,0.014,0.999,0.0,0.0,-0.122,16.991,5.876,-46.254,0.843,2.895,-175.739
2025-09-03 22:29:36.716086,-0.05,0.014,0.999,0.0,0.0,0.0,16.978,5.85,-46.254,0.843,2.895,-175.742
2025-09-03 22:29:36.736460,-0.05,0.014,0.999,0.0,0.0,-0.122,16.978,5.863,-46.241,0.842,2.895,-175.746
2025-09-03 22:29:36.756461,-0.05,0.014,0.999,0.0,0.0,-0.122,17.004,5.863,-46.241,0.842,2.895,-175.75
2025-09-03 22:29:36.776710,-0.05,0.014,0.999,0.0,0.0,-0.122,16.991,5.863,-46.241,0.842,2.895,-175.753
2025-09-03 22:29:36.796955,-0.05,0.014,0.999,0.0,0.0,-0.122,17.03,5.863,-46.254,0.841,2.895,-175.756
2025-09-03 22:29:36.817032,-0.05,0.014,0.999,0.0,0.0,-0.122,17.004,5.902,-46.228,0.841,2.895,-175.76
2025-09-03 22:29:36.837452,-0.05,0.014,0.999,0.0,0.0,-0.122,16.991,5.928,-46.254,0.841,2.895,-175.763
2025-09-03 22:29:36.857700,-0.05,0.014,0.999,0.0,0.0,-0.122,16.991,5.967,-46.254,0.84,2.895,-175.767
2025-09-03 22:29:36.877950,-0.05,0.014,0.999,0.0,0.0,-0.122,16.991,5.941,-46.254,0.84,2.895,-175.77
2025-09-03 22:29:36.898071,-0.05,0.014,0.999,0.0,0.0,-0.122,16.991,5.889,-46.254,0.84,2.894,-175.773
2025-09-03 22:29:36.918445,-0.05,0.014,0.999,0.0,0.0,-0.122,17.004,5.876,-46.241,0.839,2.894,-175.777
2025-09-03 22:29:36.938569,-0.05,0.014,0.999,0.0,0.0,-0.122,17.03,5.863,-46.241,0.839,2.894,-175.78
2025-09-03 22:29:36.958654,-0.05,0.014,0.999,0.0,0.0,-0.122,16.991,5.928,-46.267,0.839,2.894,-175.783
2025-09-03 22:29:36.978943,-0.05,0.014,0.999,0.0,0.0,0.0,16.991,5.941,-46.254,0.839,2.894,-175.787
2025-09-03 22:29:36.999314,-0.05,0.014,0.999,0.0,0.0,-0.122,17.017,5.915,-46.228,0.838,2.894,-175.79
2025-09-03 22:29:37.019562,-0.05,0.014,0.999,0.0,0.0,-0.122,17.004,5.876,-46.241,0.838,2.894,-175.793
2025-09-03 22:29:37.039686,-0.05,0.014,0.999,0.0,0.0,-0.122,17.004,5.915,-46.254,0.838,2.894,-175.797
2025-09-03 22:29:37.059890,-0.05,0.014,0.999,0.0,0.0,-0.122,17.017,5.915,-46.254,0.838,2.894,-175.8
2025-09-03 22:29:37.080187,-0.05,0.014,0.999,0.0,0.0,-0.122,17.017,5.876,-46.254,0.837,2.894,-175.804
2025-09-03 22:29:37.100434,-0.05,0.014,0.999,0.0,0.0,-0.122,16.991,5.902,-46.241,0.837,2.894,-175.807
2025-09-03 22:29:37.120554,-0.05,0.014,0.999,0.0,0.0,-0.122,16.991,5.928,-46.241,0.837,2.894,-175.81
2025-09-03 22:29:37.140928,-0.05,0.014,0.999,0.0,0.0,-0.122,16.991,5.941,-46.241,0.837,2.894,-175.814
2025-09-03 22:29:37.161183,-0.05,0.014,0.999,0.0,0.0,-0.122,16.991,5.902,-46.28,0.836,2.894,-175.817
2025-09-03 22:29:37.181379,-0.05,0.014,0.999,0.0,0.0,-0.122,16.991,5.902,-46.267,0.836,2.894,-175.821
2025-09-03 22:29:37.201548,-0.05,0.014,0.999,0.0,0.0,-0.122,17.017,5.863,-46.254,0.836,2.894,-175.824
2025-09-03 22:29:37.221797,-0.05,0.014,0.999,0.0,0.0,-0.122,17.017,5.889,-46.228,0.836,2.894,-175.828
2025-09-03 22:29:37.242045,-0.05,0.014,0.999,0.0,0.0,-0.122,17.043,5.928,-46.241,0.836,2.894,-175.832
2025-09-03 22:29:37.262418,-0.05,0.014,0.999,0.0,0.0,-0.122,17.017,5.928,-46.254,0.836,2.894,-175.835
2025-09-03 22:29:37.282416,-0.05,0.014,0.999,0.0,0.0,-0.122,17.004,5.889,-46.241,0.835,2.894,-175.838
2025-09-03 22:29:37.302790,-0.05,0.014,0.999,0.0,0.0,-0.122,16.978,5.889,-46.241,0.835,2.894,-175.842
2025-09-03 22:29:37.323038,-0.05,0.014,0.999,0.0,0.0,0.0,16.952,5.863,-46.267,0.835,2.894,-175.845
2025-09-03 22:29:37.343411,-0.05,0.014,0.999,0.0,0.0,-0.122,16.978,5.863,-46.28,0.835,2.894,-175.849
2025-09-03 22:29:37.363411,-0.05,0.014,0.999,0.0,0.0,-0.122,16.991,5.863,-46.241,0.835,2.894,-175.852
2025-09-03 22:29:37.383659,-0.05,0.014,0.999,0.0,0.0,-0.122,16.991,5.863,-46.241,0.835,2.894,-175.855
2025-09-03 22:29:37.403978,-0.05,0.014,0.999,0.0,0.0,0.0,16.978,5.902,-46.241,0.835,2.894,-175.859
2025-09-03 22:29:37.424475,-0.05,0.014,0.999,0.0,0.0,-0.122,17.004,5.902,-46.241,0.834,2.894,-175.862
2025-09-03 22:29:37.444597,-0.05,0.014,0.999,0.0,0.0,-0.122,16.991,5.889,-46.241,0.834,2.894,-175.866
2025-09-03 22:29:37.464724,-0.05,0.014,0.999,0.0,0.0,-0.122,16.978,5.824,-46.254,0.834,2.894,-175.869
2025-09-03 22:29:37.484972,-0.05,0.014,0.999,0.0,0.0,-0.122,16.978,5.85,-46.202,0.834,2.894,-175.872
2025-09-03 22:29:37.505095,-0.05,0.014,0.999,0.0,0.0,0.0,17.004,5.863,-46.215,0.834,2.894,-175.876
2025-09-03 22:29:37.525469,-0.05,0.014,0.999,0.0,0.0,-0.122,16.978,5.902,-46.267,0.834,2.894,-175.879
2025-09-03 22:29:37.545466,-0.05,0.014,0.999,0.0,0.0,-0.122,17.004,5.915,-46.241,0.834,2.894,-175.883
2025-09-03 22:29:37.565796,-0.05,0.014,0.999,0.0,0.0,-0.122,16.991,5.889,-46.241,0.834,2.894,-175.886
2025-09-03 22:29:37.585962,-0.05,0.014,0.999,0.0,0.0,0.0,16.965,5.863,-46.241,0.834,2.894,-175.889
2025-09-03 22:29:37.606338,-0.05,0.014,0.999,0.0,0.0,-0.122,17.004,5.876,-46.228,0.834,2.894,-175.893
2025-09-03 22:29:37.626586,-0.05,0.014,1.0,0.0,0.0,-0.122,16.991,5.837,-46.254,0.833,2.894,-175.896
2025-09-03 22:29:37.646835,-0.05,0.014,0.999,0.0,0.0,-0.122,16.991,5.837,-46.241,0.833,2.894,-175.899
2025-09-03 22:29:37.666977,-0.05,0.014,1.0,0.0,0.0,-0.122,16.991,5.876,-46.254,0.833,2.894,-175.903
2025-09-03 22:29:37.687396,-0.05,0.014,0.999,0.0,0.0,-0.122,16.965,5.889,-46.241,0.833,2.894,-175.907
2025-09-03 22:29:37.707383,-0.05,0.014,0.999,0.0,0.0,-0.122,16.965,5.889,-46.254,0.833,2.894,-175.91
2025-09-03 22:29:37.727757,-0.05,0.014,0.999,0.0,0.0,-0.122,16.965,5.876,-46.254,0.833,2.894,-175.913
2025-09-03 22:29:37.747757,-0.05,0.014,0.999,0.0,0.0,-0.122,16.978,5.837,-46.228,0.833,2.894,-175.917
2025-09-03 22:29:37.768086,-0.05,0.014,0.999,0.0,0.0,-0.122,16.939,5.863,-46.254,0.833,2.894,-175.92
2025-09-03 22:29:37.788379,-0.05,0.014,0.999,0.0,0.0,-0.122,16.978,5.889,-46.241,0.832,2.894,-175.924
2025-09-03 22:29:37.808501,-0.05,0.014,0.999,0.0,0.0,-0.122,17.004,5.889,-46.254,0.832,2.894,-175.927
2025-09-03 22:29:37.828818,-0.05,0.014,0.999,0.0,0.0,-0.122,17.004,5.876,-46.254,0.832,2.894,-175.931
2025-09-03 22:29:37.848996,-0.05,0.014,0.999,0.0,0.0,0.0,16.991,5.889,-46.215,0.832,2.894,-175.934
2025-09-03 22:29:37.869371,-0.05,0.014,0.999,0.0,0.0,-0.122,16.991,5.876,-46.215,0.832,2.894,-175.938
2025-09-03 22:29:37.889624,-0.05,0.014,0.999,0.0,0.0,-0.122,16.991,5.837,-46.254,0.832,2.894,-175.941
2025-09-03 22:29:37.909743,-0.05,0.014,0.999,0.0,0.0,-0.122,17.056,5.837,-46.241,0.832,2.894,-175.944
2025-09-03 22:29:37.929991,-0.05,0.014,0.999,0.0,0.0,0.0,17.017,5.837,-46.228,0.831,2.894,-175.947
2025-09-03 22:29:37.950364,-0.05,0.014,0.999,0.0,0.0,-0.122,16.965,5.889,-46.254,0.831,2.894,-175.951
2025-09-03 22:29:37.970366,-0.05,0.014,1.0,0.0,0.0,-0.122,16.991,5.928,-46.241,0.831,2.894,-175.954
2025-09-03 22:29:37.990700,-0.05,0.014,1.0,0.0,0.0,-0.122,16.991,5.902,-46.241,0.831,2.894,-175.958
2025-09-03 22:29:38.011062,-0.05,0.014,1.0,0.0,0.0,-0.122,17.004,5.837,-46.254,0.831,2.894,-175.961
2025-09-03 22:29:38.031427,-0.05,0.014,1.0,0.0,0.0,-0.122,17.004,5.837,-46.241,0.831,2.894,-175.964
2025-09-03 22:29:38.051426,-0.05,0.014,1.0,0.0,0.0,-0.122,17.004,5.837,-46.254,0.831,2.894,-175.968
2025-09-03 22:29:38.071508,-0.05,0.014,1.0,0.0,0.0,-0.122,16.991,5.863,-46.241,0.83,2.894,-175.971
2025-09-03 22:29:38.091804,-0.05,0.014,0.999,0.0,0.0,-0.122,17.056,5.889,-46.241,0.83,2.894,-175.974
2025-09-03 22:29:38.112302,-0.05,0.014,0.999,0.0,0.0,-0.122,17.03,5.876,-46.241,0.83,2.894,-175.977
2025-09-03 22:29:38.132426,-0.05,0.014,0.999,0.0,0.0,-0.122,17.03,5.889,-46.241,0.83,2.894,-175.981
2025-09-03 22:29:38.152673,-0.05,0.014,0.999,0.0,0.0,-0.122,17.017,5.915,-46.241,0.83,2.894,-175.984
2025-09-03 22:29:38.172927,-0.05,0.014,0.999,0.0,0.0,0.0,17.056,5.889,-46.241,0.83,2.894,-175.988
2025-09-03 22:29:38.193297,-0.05,0.014,0.999,0.0,0.0,-0.122,17.043,5.837,-46.254,0.83,2.894,-175.991
2025-09-03 22:29:38.213545,-0.05,0.014,0.999,0.0,0.0,-0.183,17.056,5.863,-46.241,0.83,2.894,-175.994
2025-09-03 22:29:38.233542,-0.05,0.014,0.999,0.0,0.0,-0.122,17.043,5.889,-46.228,0.83,2.894,-175.998
2025-09-03 22:29:38.253915,-0.05,0.014,0.999,0.0,0.0,-0.122,16.991,5.902,-46.254,0.83,2.894,-176.001
2025-09-03 22:29:38.274290,-0.05,0.014,0.999,0.0,0.0,-0.122,16.991,5.889,-46.28,0.829,2.894,-176.005
2025-09-03 22:29:38.294287,-0.05,0.014,0.999,0.0,0.0,-0.183,17.017,5.876,-46.241,0.829,2.894,-176.008
2025-09-03 22:29:38.314537,-0.05,0.014,0.999,0.0,0.0,-0.122,17.017,5.85,-46.241,0.829,2.894,-176.012
2025-09-03 22:29:38.334538,-0.05,0.014,0.999,0.0,0.0,-0.122,17.004,5.915,-46.241,0.829,2.894,-176.015
2025-09-03 22:29:38.354910,-0.05,0.014,0.999,0.0,0.0,-0.122,17.017,5.889,-46.241,0.829,2.894,-176.019
2025-09-03 22:29:38.375281,-0.05,0.014,0.999,0.0,0.0,-0.183,17.03,5.889,-46.241,0.829,2.894,-176.022
2025-09-03 22:29:38.395280,-0.05,0.014,0.999,0.0,0.0,-0.122,17.017,5.902,-46.254,0.829,2.894,-176.026
2025-09-03 22:29:38.415777,-0.05,0.014,0.999,0.0,0.0,-0.122,17.004,5.902,-46.241,0.829,2.894,-176.03
2025-09-03 22:29:38.436026,-0.05,0.014,0.999,0.0,0.0,0.0,16.978,5.889,-46.254,0.829,2.893,-176.033
2025-09-03 22:29:38.456274,-0.05,0.014,0.999,0.0,0.0,-0.122,16.991,5.876,-46.267,0.828,2.893,-176.037
2025-09-03 22:29:38.476398,-0.05,0.014,1.0,0.0,0.0,-0.122,16.991,5.863,-46.241,0.828,2.893,-176.04
2025-09-03 22:29:38.496648,-0.05,0.014,1.0,0.0,0.0,-0.122,16.978,5.876,-46.241,0.828,2.893,-176.043
2025-09-03 22:29:38.516895,-0.05,0.014,0.999,0.0,0.0,-0.122,16.965,5.902,-46.228,0.828,2.894,-176.047
2025-09-03 22:29:38.537267,-0.05,0.014,1.0,0.0,0.0,-0.122,16.978,5.928,-46.241,0.828,2.894,-176.05
2025-09-03 22:29:38.557266,-0.05,0.014,1.0,0.0,0.0,-0.122,16.978,5.902,-46.254,0.828,2.894,-176.054
2025-09-03 22:29:38.577649,-0.05,0.014,1.0,0.0,0.0,-0.122,16.978,5.876,-46.241,0.828,2.894,-176.057
2025-09-03 22:29:38.597843,-0.05,0.014,0.999,0.0,0.0,-0.122,17.017,5.85,-46.254,0.828,2.894,-176.061
2025-09-03 22:29:38.618264,-0.05,0.014,0.999,0.0,0.0,-0.122,17.004,5.863,-46.241,0.828,2.894,-176.065
2025-09-03 22:29:38.638266,-0.05,0.014,0.999,0.0,0.0,-0.122,17.004,5.889,-46.267,0.828,2.894,-176.068
2025-09-03 22:29:38.658510,-0.05,0.014,0.999,0.0,0.0,-0.122,16.978,5.902,-46.254,0.828,2.894,-176.072
2025-09-03 22:29:38.678770,-0.05,0.014,0.999,0.0,0.0,-0.122,16.965,5.902,-46.267,0.828,2.894,-176.075
2025-09-03 22:29:38.699013,-0.05,0.014,0.999,0.0,0.0,0.0,16.952,5.928,-46.254,0.828,2.894,-176.079
2025-09-03 22:29:38.719384,-0.05,0.014,0.999,0.0,0.0,-0.122,16.978,5.902,-46.241,0.827,2.894,-176.082
2025-09-03 22:29:38.739629,-0.05,0.014,0.999,0.0,0.0,-0.122,16.978,5.889,-46.241,0.827,2.893,-176.085
2025-09-03 22:29:38.759762,-0.05,0.014,0.999,0.0,0.0,-0.122,17.004,5.811,-46.241,0.827,2.893,-176.089
2025-09-03 22:29:38.780002,-0.05,0.014,0.999,0.0,0.0,0.0,17.056,5.863,-46.202,0.827,2.893,-176.092
2025-09-03 22:29:38.800250,-0.05,0.014,0.999,0.0,0.0,-0.122,17.043,5.915,-46.215,0.827,2.893,-176.096
2025-09-03 22:29:38.820496,-0.05,0.014,0.999,0.0,0.0,-0.122,17.017,5.915,-46.241,0.827,2.893,-176.099
2025-09-03 22:29:38.840744,-0.05,0.014,0.999,0.0,0.0,-0.122,17.03,5.902,-46.241,0.827,2.893,-176.102
2025-09-03 22:29:38.861118,-0.05,0.014,0.999,0.0,0.0,-0.122,17.017,5.863,-46.228,0.827,2.893,-176.106
2025-09-03 22:29:38.881368,-0.05,0.014,0.999,0.0,0.0,-0.122,17.017,5.876,-46.241,0.827,2.893,-176.109
2025-09-03 22:29:38.901614,-0.05,0.014,0.999,0.0,0.0,-0.122,17.017,5.889,-46.241,0.827,2.893,-176.113
2025-09-03 22:29:38.921863,-0.05,0.014,0.999,0.0,0.0,-0.122,17.017,5.889,-46.241,0.827,2.893,-176.116
2025-09-03 22:29:38.942236,-0.05,0.014,0.999,0.0,0.0,-0.122,17.017,5.889,-46.267,0.827,2.893,-176.12
2025-09-03 22:29:38.962235,-0.05,0.014,0.999,0.0,0.0,-0.122,17.017,5.928,-46.241,0.827,2.893,-176.124
2025-09-03 22:29:38.982485,-0.05,0.014,0.999,0.0,0.0,-0.122,17.017,5.902,-46.241,0.827,2.893,-176.127
2025-09-03 22:29:39.002937,-0.05,0.014,0.999,0.0,0.0,-0.122,16.991,5.876,-46.241,0.827,2.893,-176.13
2025-09-03 22:29:39.023232,-0.05,0.014,0.999,0.0,0.0,-0.122,17.017,5.863,-46.267,0.827,2.893,-176.134
2025-09-03 22:29:39.043355,-0.05,0.014,0.999,0.0,0.0,-0.122,16.991,5.863,-46.241,0.826,2.893,-176.137
2025-09-03 22:29:39.063603,-0.05,0.014,0.999,0.0,0.0,-0.122,16.978,5.889,-46.241,0.826,2.893,-176.141
2025-09-03 22:29:39.083725,-0.05,0.014,0.999,0.0,0.0,-0.122,16.978,5.954,-46.241,0.826,2.893,-176.144
2025-09-03 22:29:39.104223,-0.05,0.014,0.999,0.0,0.0,-0.122,16.991,5.954,-46.241,0.826,2.893,-176.148
2025-09-03 22:29:39.124221,-0.05,0.014,0.999,0.0,0.0,-0.122,16.978,5.902,-46.254,0.826,2.893,-176.151
2025-09-03 22:29:39.144596,-0.05,0.014,0.999,0.0,0.0,-0.122,16.991,5.876,-46.228,0.826,2.893,-176.155
2025-09-03 22:29:39.164843,-0.05,0.014,0.999,0.0,0.0,-0.122,17.004,5.863,-46.215,0.826,2.893,-176.158
2025-09-03 22:29:39.185260,-0.05,0.014,0.999,0.0,0.0,-0.122,17.004,5.863,-46.228,0.826,2.893,-176.161
2025-09-03 22:29:39.205346,-0.05,0.014,0.999,0.0,0.0,-0.122,17.03,5.863,-46.228,0.826,2.893,-176.164
2025-09-03 22:29:39.225585,-0.05,0.014,1.0,0.0,0.0,-0.122,17.004,5.902,-46.241,0.826,2.893,-176.168
2025-09-03 22:29:39.245845,-0.05,0.014,1.0,0.0,0.0,-0.122,16.965,5.876,-46.241,0.826,2.893,-176.171
2025-09-03 22:29:39.265965,-0.05,0.014,1.0,0.0,0.0,-0.122,16.926,5.863,-46.228,0.826,2.893,-176.175
2025-09-03 22:29:39.286338,-0.05,0.014,1.0,0.0,0.0,-0.122,16.978,5.876,-46.228,0.826,2.893,-176.178
2025-09-03 22:29:39.306460,-0.05,0.014,1.0,0.0,0.0,-0.183,16.991,5.863,-46.228,0.826,2.893,-176.182
2025-09-03 22:29:39.326835,-0.05,0.014,1.0,0.0,0.0,-0.122,16.991,5.863,-46.228,0.826,2.893,-176.185
2025-09-03 22:29:39.346829,-0.05,0.014,1.0,0.0,0.0,-0.122,17.043,5.863,-46.202,0.826,2.893,-176.188
2025-09-03 22:29:39.367324,-0.05,0.014,0.999,0.0,0.0,-0.122,17.017,5.889,-46.254,0.826,2.893,-176.191
2025-09-03 22:29:39.387322,-0.05,0.014,0.999,0.0,0.0,-0.122,16.991,5.915,-46.241,0.826,2.893,-176.195
2025-09-03 22:29:39.407571,-0.05,0.014,0.999,0.0,0.0,-0.122,16.991,5.902,-46.254,0.826,2.893,-176.198
2025-09-03 22:29:39.427817,-0.05,0.014,0.999,0.0,0.0,-0.122,16.978,5.837,-46.241,0.825,2.893,-176.201
2025-09-03 22:29:39.448315,-0.05,0.014,0.999,0.0,0.0,-0.183,16.939,5.85,-46.241,0.825,2.893,-176.205
2025-09-03 22:29:39.468158,-0.05,0.014,0.999,0.0,0.0,-0.183,16.978,5.876,-46.228,0.825,2.893,-176.208
2025-09-03 22:29:39.488691,-0.05,0.014,0.999,0.0,0.0,-0.122,16.991,5.876,-46.254,0.825,2.893,-176.212
2025-09-03 22:29:39.508686,-0.05,0.014,0.999,0.0,0.0,-0.122,17.03,5.811,-46.241,0.825,2.893,-176.215
2025-09-03 22:29:39.529191,-0.05,0.014,0.999,0.0,0.0,-0.183,17.017,5.889,-46.228,0.825,2.893,-176.218
2025-09-03 22:29:39.549189,-0.05,0.014,0.999,0.0,0.0,-0.183,17.03,5.876,-46.228,0.825,2.893,-176.222
2025-09-03 22:29:39.569437,-0.05,0.014,0.999,0.0,0.0,-0.122,17.043,5.85,-46.241,0.825,2.893,-176.226
2025-09-03 22:29:39.589562,-0.05,0.014,0.999,0.0,0.0,-0.122,17.056,5.824,-46.228,0.825,2.893,-176.229
2025-09-03 22:29:39.609810,-0.05,0.014,1.0,0.0,0.0,-0.122,17.043,5.811,-46.228,0.825,2.893,-176.232
2025-09-03 22:29:39.630183,-0.05,0.014,1.0,0.0,0.0,-0.122,16.991,5.85,-46.228,0.825,2.893,-176.236
2025-09-03 22:29:39.650432,-0.05,0.014,1.0,0.0,0.0,-0.122,17.017,5.889,-46.241,0.825,2.893,-176.239
2025-09-03 22:29:39.670678,-0.05,0.014,1.0,0.0,0.0,-0.122,17.004,5.902,-46.254,0.825,2.893,-176.242
2025-09-03 22:29:39.690806,-0.05,0.014,1.0,0.0,0.0,-0.122,16.978,5.824,-46.267,0.825,2.893,-176.245
2025-09-03 22:29:39.711178,-0.05,0.014,1.0,0.0,0.0,-0.122,16.978,5.85,-46.228,0.825,2.893,-176.249
2025-09-03 22:29:39.731302,-0.05,0.014,0.999,0.0,0.0,-0.122,16.978,5.811,-46.215,0.825,2.893,-176.252
2025-09-03 22:29:39.751549,-0.05,0.014,0.999,0.0,0.0,-0.122,17.004,5.85,-46.254,0.825,2.893,-176.256
2025-09-03 22:29:39.771922,-0.05,0.014,0.999,0.0,0.0,-0.122,17.03,5.876,-46.241,0.825,2.893,-176.259
2025-09-03 22:29:39.792170,-0.05,0.014,0.999,0.0,0.0,-0.122,17.017,5.863,-46.215,0.824,2.893,-176.263
2025-09-03 22:29:39.812294,-0.05,0.014,0.999,0.0,0.0,-0.122,17.004,5.876,-46.241,0.824,2.893,-176.266
2025-09-03 22:29:39.832543,-0.05,0.014,0.999,0.0,0.0,-0.122,17.004,5.876,-46.241,0.824,2.893,-176.269
2025-09-03 22:29:39.852665,-0.05,0.014,0.999,0.0,0.0,-0.122,17.017,5.85,-46.228,0.824,2.893,-176.272
2025-09-03 22:29:39.872913,-0.05,0.014,0.999,0.0,0.0,-0.122,17.004,5.785,-46.241,0.824,2.893,-176.276
2025-09-03 22:29:39.893163,-0.05,0.014,0.999,0.0,0.0,-0.122,16.991,5.837,-46.215,0.824,2.893,-176.279
2025-09-03 22:29:39.913412,-0.05,0.014,0.999,0.0,0.0,-0.122,16.991,5.863,-46.228,0.824,2.893,-176.282
2025-09-03 22:29:39.933535,-0.05,0.014,0.999,0.0,0.0,-0.122,16.991,5.876,-46.241,0.824,2.893,-176.285
2025-09-03 22:29:39.953783,-0.05,0.014,0.999,0.0,0.0,-0.122,17.004,5.902,-46.241,0.824,2.893,-176.289
2025-09-03 22:29:39.974154,-0.05,0.014,0.999,0.0,0.0,-0.122,16.965,5.863,-46.228,0.824,2.893,-176.292
2025-09-03 22:29:39.994279,-0.05,0.014,0.999,0.0,0.0,-0.122,16.978,5.863,-46.228,0.824,2.893,-176.296
2025-09-03 22:29:40.014527,-0.05,0.014,1.0,0.0,0.0,-0.122,16.978,5.85,-46.228,0.824,2.893,-176.3
2025-09-03 22:29:40.034776,-0.05,0.014,1.0,0.0,0.0,-0.122,16.991,5.863,-46.228,0.825,2.893,-176.303
2025-09-03 22:29:40.055149,-0.05,0.014,1.0,0.0,0.0,-0.122,17.004,5.837,-46.267,0.825,2.893,-176.307
2025-09-03 22:29:40.075155,-0.05,0.014,1.0,0.0,0.0,-0.122,16.991,5.889,-46.254,0.825,2.893,-176.31
2025-09-03 22:29:40.095414,-0.05,0.014,1.0,0.0,0.0,-0.122,17.004,5.889,-46.241,0.825,2.893,-176.313
2025-09-03 22:29:40.115783,-0.05,0.014,0.999,0.0,0.0,-0.122,17.004,5.902,-46.241,0.825,2.893,-176.317
2025-09-03 22:29:40.135781,-0.05,0.014,0.999,0.0,0.0,-0.122,17.056,5.889,-46.254,0.825,2.893,-176.32
2025-09-03 22:29:40.156157,-0.05,0.014,0.999,0.0,0.0,-0.122,17.03,5.85,-46.215,0.825,2.893,-176.323
2025-09-03 22:29:40.176401,-0.05,0.014,0.999,0.0,0.0,-0.122,17.017,5.876,-46.241,0.825,2.893,-176.327
2025-09-03 22:29:40.196528,-0.05,0.014,0.999,0.0,0.0,-0.122,17.017,5.915,-46.241,0.825,2.893,-176.33
2025-09-03 22:29:40.216773,-0.05,0.014,0.999,0.0,0.0,-0.122,17.004,5.915,-46.241,0.825,2.893,-176.334
2025-09-03 22:29:40.237148,-0.05,0.014,0.999,0.0,0.0,-0.122,16.991,5.863,-46.254,0.825,2.893,-176.337
2025-09-03 22:29:40.257272,-0.05,0.014,0.999,0.0,0.0,-0.122,17.004,5.889,-46.241,0.825,2.893,-176.341
2025-09-03 22:29:40.277395,-0.05,0.014,0.999,0.0,0.0,-0.122,17.004,5.889,-46.228,0.825,2.893,-176.344
2025-09-03 22:29:40.297640,-0.05,0.014,0.999,0.0,0.0,-0.122,17.017,5.863,-46.215,0.825,2.893,-176.347
2025-09-03 22:29:40.318053,-0.05,0.014,0.999,0.0,0.0,0.0,17.043,5.876,-46.241,0.825,2.893,-176.351
2025-09-03 22:29:40.338182,-0.05,0.014,0.999,0.0,0.0,-0.122,17.03,5.889,-46.228,0.825,2.893,-176.354
2025-09-03 22:29:40.358432,-0.05,0.014,0.999,0.0,0.0,-0.122,17.017,5.902,-46.228,0.825,2.893,-176.358
2025-09-03 22:29:40.378673,-0.05,0.014,0.999,0.0,0.0,-0.122,17.03,5.928,-46.241,0.825,2.893,-176.361
2025-09-03 22:29:40.398924,-0.05,0.014,0.999,0.0,0.0,-0.122,17.017,5.915,-46.241,0.824,2.893,-176.364
2025-09-03 22:29:40.419171,-0.05,0.014,0.999,0.0,0.0,-0.122,16.978,5.85,-46.241,0.824,2.893,-176.368
2025-09-03 22:29:40.439294,-0.05,0.014,0.999,0.0,0.0,-0.122,16.991,5.863,-46.228,0.824,2.893,-176.371
2025-09-03 22:29:40.459544,-0.05,0.014,0.999,0.0,0.0,-0.122,17.017,5.876,-46.241,0.824,2.893,-176.375
2025-09-03 22:29:40.479791,-0.05,0.014,0.999,0.0,0.0,-0.122,17.004,5.902,-46.241,0.824,2.893,-176.378
2025-09-03 22:29:40.500165,-0.05,0.014,0.999,0.0,0.0,0.0,17.004,5.928,-46.254,0.824,2.893,-176.381
2025-09-03 22:29:40.520288,-0.05,0.014,0.999,0.0,0.0,-0.122,16.965,5.928,-46.241,0.824,2.893,-176.385
2025-09-03 22:29:40.540543,-0.05,0.014,0.999,0.0,0.0,-0.122,16.978,5.902,-46.254,0.824,2.893,-176.388
2025-09-03 22:29:40.560736,-0.05,0.014,0.999,0.0,0.0,-0.122,16.965,5.941,-46.241,0.824,2.893,-176.392
2025-09-03 22:29:40.581107,-0.05,0.014,0.999,0.0,0.0,0.0,16.991,5.902,-46.228,0.824,2.893,-176.395
2025-09-03 22:29:40.601106,-0.05,0.014,0.999,0.0,0.0,-0.122,16.952,5.876,-46.241,0.824,2.893,-176.399
2025-09-03 22:29:40.621355,-0.05,0.014,0.999,0.0,0.0,-0.122,16.978,5.902,-46.254,0.824,2.893,-176.402
2025-09-03 22:29:40.641606,-0.05,0.014,0.999,0.0,0.0,-0.122,16.978,5.941,-46.254,0.824,2.893,-176.405
2025-09-03 22:29:40.661978,-0.05,0.014,0.999,0.0,0.0,0.0,16.952,5.954,-46.254,0.824,2.893,-176.408
2025-09-03 22:29:40.682226,-0.05,0.014,0.999,0.0,0.0,-0.122,16.965,5.915,-46.293,0.824,2.893,-176.412
2025-09-03 22:29:40.702528,-0.05,0.014,0.999,0.0,0.0,-0.122,16.991,5.889,-46.267,0.823,2.893,-176.415
2025-09-03 22:29:40.722774,-0.05,0.014,0.999,0.0,0.0,-0.122,16.978,5.85,-46.228,0.823,2.893,-176.419
2025-09-03 22:29:40.743145,-0.05,0.014,0.999,0.0,0.0,0.0,16.939,5.876,-46.228,0.823,2.893,-176.422
2025-09-03 22:29:40.763145,-0.05,0.014,0.999,0.0,0.0,-0.122,16.978,5.889,-46.228,0.823,2.893,-176.426
2025-09-03 22:29:40.783393,-0.05,0.014,0.999,0.0,0.0,-0.122,16.978,5.928,-46.241,0.823,2.893,-176.429
2025-09-03 22:29:40.803642,-0.05,0.014,0.999,0.0,0.0,-0.122,17.004,5.915,-46.241,0.823,2.893,-176.433
2025-09-03 22:29:40.824148,-0.05,0.014,0.999,0.0,0.0,-0.122,16.978,5.902,-46.241,0.823,2.893,-176.436
2025-09-03 22:29:40.844214,-0.05,0.014,0.999,0.0,0.0,-0.122,16.978,5.889,-46.228,0.823,2.893,-176.44
2025-09-03 22:29:40.864335,-0.05,0.014,0.999,0.0,0.0,-0.122,16.978,5.876,-46.241,0.823,2.893,-176.443
2025-09-03 22:29:40.884585,-0.05,0.014,1.0,0.0,0.0,-0.122,16.991,5.876,-46.241,0.823,2.893,-176.447
2025-09-03 22:29:40.904707,-0.05,0.014,1.0,0.0,0.0,-0.122,16.952,5.863,-46.241,0.823,2.893,-176.45
2025-09-03 22:29:40.925081,-0.05,0.014,1.0,0.0,0.0,0.0,16.952,5.941,-46.241,0.823,2.893,-176.453
2025-09-03 22:29:40.945206,-0.05,0.014,1.0,0.0,0.0,-0.122,16.978,5.915,-46.241,0.823,2.893,-176.457
2025-09-03 22:29:40.965327,-0.05,0.014,1.0,0.0,0.0,-0.122,16.991,5.902,-46.254,0.823,2.893,-176.46
2025-09-03 22:29:40.985577,-0.05,0.014,1.0,0.0,0.0,-0.122,16.991,5.876,-46.241,0.823,2.893,-176.464
2025-09-03 22:29:41.005830,-0.05,0.014,0.999,0.0,0.0,-0.122,16.978,5.876,-46.228,0.823,2.893,-176.467
2025-09-03 22:29:41.026200,-0.05,0.014,0.999,0.0,0.0,-0.122,16.978,5.876,-46.241,0.823,2.893,-176.47
2025-09-03 22:29:41.046323,-0.05,0.014,0.999,0.0,0.0,-0.122,16.978,5.889,-46.267,0.823,2.893,-176.474
2025-09-03 22:29:41.066571,-0.05,0.014,0.999,0.0,0.0,-0.122,16.978,5.902,-46.254,0.823,2.893,-176.477
2025-09-03 22:29:41.086821,-0.05,0.014,0.999,0.0,0.0,-0.122,16.965,5.889,-46.228,0.823,2.893,-176.481
2025-09-03 22:29:41.107066,-0.05,0.014,0.999,0.0,0.0,0.0,16.939,5.902,-46.241,0.823,2.893,-176.484
2025-09-03 22:29:41.127192,-0.05,0.014,1.0,0.0,0.0,-0.122,16.991,5.876,-46.241,0.823,2.893,-176.488
2025-09-03 22:29:41.147448,-0.05,0.014,1.0,0.0,0.0,-0.122,16.978,5.876,-46.241,0.823,2.893,-176.491
2025-09-03 22:29:41.167697,-0.05,0.014,1.0,0.0,0.0,-0.122,16.991,5.876,-46.254,0.823,2.893,-176.494
2025-09-03 22:29:41.188071,-0.05,0.014,1.0,0.0,0.0,-0.122,17.004,5.902,-46.241,0.823,2.893,-176.498
2025-09-03 22:29:41.208198,-0.05,0.014,1.0,0.0,0.0,-0.122,17.004,5.941,-46.228,0.823,2.893,-176.501
2025-09-03 22:29:41.228447,-0.05,0.014,1.0,0.0,0.0,-0.122,16.991,5.928,-46.254,0.823,2.893,-176.505
2025-09-03 22:29:41.248693,-0.05,0.014,1.0,0.0,0.0,-0.122,16.991,5.902,-46.254,0.822,2.893,-176.508
2025-09-03 22:29:41.269064,-0.05,0.014,0.999,0.0,0.0,-0.122,16.991,5.837,-46.241,0.822,2.893,-176.511
2025-09-03 22:29:41.289065,-0.05,0.014,0.999,0.0,0.0,-0.122,16.991,5.837,-46.228,0.822,2.893,-176.515
2025-09-03 22:29:41.309314,-0.05,0.014,0.999,0.0,0.0,-0.122,17.004,5.85,-46.228,0.822,2.893,-176.518
2025-09-03 22:29:41.329562,-0.05,0.014,0.999,0.0,0.0,-0.122,16.978,5.889,-46.241,0.822,2.893,-176.521
2025-09-03 22:29:41.350081,-0.05,0.014,0.999,0.0,0.0,-0.122,16.978,5.876,-46.254,0.822,2.893,-176.525
2025-09-03 22:29:41.370056,-0.05,0.014,0.999,0.0,0.0,0.0,16.965,5.902,-46.254,0.822,2.893,-176.529
2025-09-03 22:29:41.390306,-0.05,0.014,0.999,0.0,0.0,-0.122,16.978,5.876,-46.241,0.822,2.893,-176.532
2025-09-03 22:29:41.410430,-0.05,0.014,0.999,0.0,0.0,-0.122,16.978,5.863,-46.254,0.822,2.893,-176.535
2025-09-03 22:29:41.430678,-0.05,0.014,0.999,0.0,0.0,-0.122,16.991,5.863,-46.254,0.822,2.893,-176.539
2025-09-03 22:29:41.451051,-0.05,0.014,0.999,0.0,0.0,-0.122,16.978,5.837,-46.241,0.822,2.893,-176.542
2025-09-03 22:29:41.471174,-0.05,0.014,0.999,0.0,0.0,-0.122,16.978,5.876,-46.254,0.822,2.893,-176.546
2025-09-03 22:29:41.491297,-0.05,0.014,0.999,0.0,0.0,-0.122,16.965,5.902,-46.241,0.822,2.893,-176.549
2025-09-03 22:29:41.511590,-0.05,0.014,0.999,0.0,0.0,-0.122,16.978,5.889,-46.228,0.822,2.893,-176.553
2025-09-03 22:29:41.532084,-0.05,0.014,0.999,0.0,0.0,-0.122,16.991,5.863,-46.254,0.822,2.893,-176.556
2025-09-03 22:29:41.552082,-0.05,0.014,0.999,0.0,0.0,0.0,16.978,5.85,-46.241,0.822,2.893,-176.56
2025-09-03 22:29:41.572334,-0.05,0.014,0.999,0.0,0.0,-0.122,16.991,5.837,-46.228,0.822,2.893,-176.563
2025-09-03 22:29:41.592576,-0.05,0.014,0.999,0.0,0.0,-0.122,17.004,5.863,-46.241,0.822,2.893,-176.566
2025-09-03 22:29:41.613078,-0.05,0.014,0.999,0.0,0.0,-0.122,17.03,5.876,-46.254,0.822,2.893,-176.57
2025-09-03 22:29:41.633077,-0.05,0.014,0.999,0.0,0.0,-0.122,17.004,5.889,-46.254,0.822,2.893,-176.573
2025-09-03 22:29:41.653449,-0.05,0.014,0.999,0.0,0.0,-0.122,16.978,5.889,-46.241,0.822,2.893,-176.576
2025-09-03 22:29:41.673453,-0.05,0.014,0.999,0.0,0.0,-0.122,16.978,5.928,-46.241,0.822,2.893,-176.58
2025-09-03 22:29:41.693827,-0.05,0.014,0.999,0.0,0.0,-0.122,16.991,5.85,-46.228,0.822,2.893,-176.583
2025-09-03 22:29:41.714072,-0.05,0.014,0.999,0.0,0.0,-0.122,16.991,5.85,-46.228,0.822,2.893,-176.586
2025-09-03 22:29:41.734195,-0.05,0.014,0.999,0.0,0.0,-0.122,17.017,5.863,-46.228,0.822,2.893,-176.59
2025-09-03 22:29:41.754442,-0.05,0.014,0.999,0.0,0.0,-0.122,16.991,5.863,-46.241,0.822,2.893,-176.594
2025-09-03 22:29:41.774694,-0.05,0.014,0.999,0.0,0.0,-0.122,16.991,5.902,-46.254,0.822,2.893,-176.597
2025-09-03 22:29:41.795062,-0.05,0.014,0.999,0.0,0.0,-0.122,17.004,5.902,-46.241,0.822,2.893,-176.6
2025-09-03 22:29:41.815062,-0.05,0.014,0.999,0.0,0.0,-0.122,17.004,5.876,-46.241,0.822,2.893,-176.604
2025-09-03 22:29:41.835312,-0.05,0.014,0.999,0.0,0.0,-0.122,17.004,5.876,-46.228,0.822,2.893,-176.607
2025-09-03 22:29:41.855685,-0.05,0.014,0.999,0.0,0.0,-0.122,17.004,5.863,-46.241,0.822,2.893,-176.61
2025-09-03 22:29:41.876057,-0.05,0.014,0.999,0.0,0.0,-0.122,17.017,5.889,-46.241,0.822,2.893,-176.614
2025-09-03 22:29:41.896055,-0.05,0.014,0.999,0.0,0.0,0.0,17.017,5.902,-46.241,0.822,2.893,-176.617
2025-09-03 22:29:41.916305,-0.05,0.014,0.999,0.0,0.0,-0.122,17.017,5.902,-46.241,0.822,2.893,-176.621
2025-09-03 22:29:41.936552,-0.05,0.014,0.999,0.0,0.0,-0.122,16.991,5.889,-46.241,0.822,2.893,-176.624
2025-09-03 22:29:41.956677,-0.05,0.014,0.999,0.0,0.0,-0.122,16.991,5.889,-46.241,0.822,2.893,-176.628
2025-09-03 22:29:41.977081,-0.05,0.014,0.999,0.0,0.0,-0.122,17.03,5.863,-46.241,0.822,2.893,-176.631
2025-09-03 22:29:41.997201,-0.05,0.014,0.999,0.0,0.0,-0.122,17.017,5.837,-46.228,0.822,2.892,-176.635
2025-09-03 22:29:42.017503,-0.05,0.014,0.999,0.0,0.0,-0.122,17.004,5.876,-46.228,0.822,2.892,-176.638
2025-09-03 22:29:42.037736,-0.05,0.014,0.999,0.0,0.0,-0.122,16.978,5.941,-46.228,0.822,2.892,-176.641
2025-09-03 22:29:42.058110,-0.05,0.014,0.999,0.0,0.0,-0.122,16.991,5.941,-46.254,0.822,2.893,-176.645
2025-09-03 22:29:42.078064,-0.05,0.014,0.999,0.0,0.0,0.0,17.004,5.915,-46.241,0.822,2.893,-176.648
2025-09-03 22:29:42.098361,-0.05,0.014,0.999,0.0,0.0,-0.122,16.978,5.889,-46.241,0.822,2.893,-176.652
2025-09-03 22:29:42.118608,-0.05,0.014,0.999,0.0,0.0,-0.122,16.952,5.889,-46.228,0.822,2.893,-176.655
2025-09-03 22:29:42.139107,-0.05,0.014,0.999,0.0,0.0,-0.122,16.978,5.889,-46.228,0.822,2.893,-176.659
2025-09-03 22:29:42.159231,-0.05,0.014,0.999,0.0,0.0,0.0,16.978,5.876,-46.254,0.822,2.893,-176.662
2025-09-03 22:29:42.179480,-0.05,0.014,0.999,0.0,0.0,-0.122,17.017,5.915,-46.254,0.822,2.893,-176.666
2025-09-03 22:29:42.199729,-0.05,0.014,0.999,0.0,0.0,-0.122,16.978,5.902,-46.254,0.822,2.893,-176.669
2025-09-03 22:29:42.220104,-0.05,0.014,0.999,0.0,0.0,-0.122,16.952,5.902,-46.241,0.822,2.893,-176.673
2025-09-03 22:29:42.240101,-0.05,0.014,0.999,0.0,0.0,0.0,16.978,5.902,-46.241,0.822,2.893,-176.676
2025-09-03 22:29:42.260346,-0.05,0.014,0.999,0.0,0.0,-0.122,16.991,5.889,-46.241,0.822,2.893,-176.679
2025-09-03 22:29:42.280475,-0.05,0.014,0.999,0.0,0.0,-0.122,17.004,5.85,-46.228,0.822,2.893,-176.683
2025-09-03 22:29:42.300652,-0.05,0.014,0.999,0.0,0.0,-0.122,17.017,5.863,-46.215,0.822,2.893,-176.686
2025-09-03 22:29:42.321022,-0.05,0.014,0.999,0.0,0.0,0.0,16.965,5.915,-46.254,0.822,2.893,-176.69
2025-09-03 22:29:42.341270,-0.05,0.014,0.999,0.0,0.0,-0.122,16.991,5.928,-46.28,0.822,2.893,-176.693
2025-09-03 22:29:42.361519,-0.05,0.014,0.999,0.0,0.0,-0.122,16.991,5.902,-46.241,0.822,2.893,-176.696
2025-09-03 22:29:42.381644,-0.05,0.014,0.999,0.0,0.0,-0.122,16.965,5.876,-46.228,0.822,2.893,-176.7
2025-09-03 22:29:42.402030,-0.05,0.014,0.999,0.0,0.0,-0.122,16.991,5.915,-46.228,0.822,2.893,-176.703
2025-09-03 22:29:42.422142,-0.05,0.014,0.999,0.0,0.0,-0.122,17.03,5.863,-46.215,0.822,2.893,-176.707
2025-09-03 22:29:42.442520,-0.05,0.014,0.999,0.0,0.0,-0.122,17.004,5.863,-46.228,0.822,2.893,-176.71
2025-09-03 22:29:42.462513,-0.05,0.014,0.999,0.0,0.0,-0.122,17.004,5.85,-46.241,0.822,2.893,-176.714
2025-09-03 22:29:42.483016,-0.05,0.014,0.999,0.0,0.0,-0.122,16.978,5.902,-46.228,0.822,2.893,-176.717
2025-09-03 22:29:42.503139,-0.05,0.014,0.999,0.0,0.0,0.0,16.991,5.928,-46.215,0.822,2.893,-176.72
2025-09-03 22:29:42.523258,-0.05,0.014,0.999,0.0,0.0,-0.122,16.991,5.902,-46.228,0.822,2.893,-176.724
2025-09-03 22:29:42.543504,-0.05,0.014,0.999,0.0,0.0,-0.122,17.004,5.876,-46.228,0.822,2.892,-176.728
2025-09-03 22:29:42.564007,-0.05,0.014,0.999,0.0,0.0,-0.122,16.991,5.85,-46.228,0.822,2.892,-176.731
2025-09-03 22:29:42.584130,-0.05,0.014,0.999,0.0,0.0,-0.122,16.952,5.876,-46.228,0.822,2.892,-176.734
2025-09-03 22:29:42.604254,-0.05,0.014,0.999,0.0,0.0,-0.122,16.991,5.876,-46.241,0.822,2.892,-176.738
2025-09-03 22:29:42.624498,-0.05,0.014,0.999,0.0,0.0,-0.122,16.991,5.915,-46.241,0.822,2.892,-176.741
2025-09-03 22:29:42.644692,-0.05,0.014,0.999,0.0,0.0,-0.122,16.978,5.902,-46.228,0.822,2.892,-176.744
2025-09-03 22:29:42.665085,-0.05,0.014,1.0,0.0,0.0,-0.122,16.991,5.915,-46.202,0.822,2.892,-176.747
2025-09-03 22:29:42.685199,-0.05,0.014,1.0,0.0,0.0,-0.122,16.991,5.889,-46.215,0.822,2.892,-176.751
2025-09-03 22:29:42.705447,-0.05,0.014,1.0,0.0,0.0,-0.122,16.965,5.876,-46.241,0.822,2.892,-176.754
2025-09-03 22:29:42.725822,-0.05,0.014,1.0,0.0,0.0,-0.122,17.043,5.876,-46.241,0.822,2.892,-176.757
2025-09-03 22:29:42.746068,-0.05,0.014,1.0,0.0,0.0,-0.122,17.043,5.876,-46.228,0.822,2.892,-176.761
2025-09-03 22:29:42.766190,-0.05,0.014,1.0,0.0,0.0,-0.122,17.017,5.902,-46.241,0.822,2.892,-176.764
2025-09-03 22:29:42.786441,-0.05,0.014,0.999,0.0,0.0,-0.122,16.991,5.915,-46.241,0.822,2.892,-176.768
2025-09-03 22:29:42.806687,-0.05,0.014,0.999,0.0,0.0,-0.122,17.03,5.863,-46.241,0.822,2.892,-176.771
2025-09-03 22:29:42.827053,-0.05,0.014,0.999,0.0,0.0,-0.122,17.017,5.798,-46.241,0.822,2.892,-176.775
2025-09-03 22:29:42.847177,-0.05,0.014,0.999,0.0,0.0,-0.122,17.03,5.837,-46.228,0.822,2.892,-176.778
2025-09-03 22:29:42.867559,-0.05,0.014,0.999,0.0,0.0,-0.122,17.043,5.837,-46.215,0.822,2.892,-176.781
2025-09-03 22:29:42.887801,-0.05,0.014,0.999,0.0,0.0,-0.122,17.043,5.876,-46.241,0.822,2.892,-176.785
2025-09-03 22:29:42.907978,-0.05,0.014,0.999,0.0,0.0,-0.122,17.082,5.915,-46.241,0.822,2.892,-176.788
2025-09-03 22:29:42.928100,-0.05,0.014,0.999,0.0,0.0,-0.122,17.043,5.889,-46.228,0.822,2.892,-176.791
2025-09-03 22:29:42.948326,-0.05,0.014,0.999,0.0,0.0,-0.122,17.03,5.876,-46.241,0.822,2.892,-176.795
2025-09-03 22:29:42.968600,-0.05,0.014,0.999,0.0,0.0,-0.122,17.043,5.876,-46.241,0.822,2.892,-176.798
2025-09-03 22:29:42.988976,-0.05,0.014,0.999,0.0,0.0,-0.122,17.043,5.863,-46.241,0.822,2.892,-176.801
2025-09-03 22:29:43.008967,-0.05,0.014,0.999,0.0,0.0,0.0,17.043,5.85,-46.241,0.822,2.892,-176.805
2025-09-03 22:29:43.029220,-0.05,0.014,0.999,0.0,0.0,-0.122,17.056,5.876,-46.215,0.822,2.892,-176.809
2025-09-03 22:29:43.049593,-0.05,0.014,0.999,0.0,0.0,-0.122,17.056,5.889,-46.228,0.822,2.892,-176.812
2025-09-03 22:29:43.069975,-0.05,0.014,0.999,0.0,0.0,-0.122,17.03,5.902,-46.241,0.822,2.892,-176.815
2025-09-03 22:29:43.089968,-0.05,0.014,0.999,0.0,0.0,-0.122,17.03,5.876,-46.267,0.822,2.892,-176.819
2025-09-03 22:29:43.110219,-0.05,0.014,0.999,0.0,0.0,-0.122,17.043,5.85,-46.228,0.822,2.893,-176.822
2025-09-03 22:29:43.130463,-0.05,0.014,0.999,0.0,0.0,-0.122,17.043,5.837,-46.241,0.822,2.893,-176.826
2025-09-03 22:29:43.151027,-0.05,0.014,0.999,0.0,0.0,-0.122,17.004,5.889,-46.241,0.822,2.893,-176.829
2025-09-03 22:29:43.171028,-0.05,0.014,0.999,0.0,0.0,-0.122,17.017,5.889,-46.241,0.822,2.893,-176.832
2025-09-03 22:29:43.191152,-0.05,0.014,1.0,0.0,0.0,-0.122,17.03,5.889,-46.254,0.822,2.893,-176.836
2025-09-03 22:29:43.211481,-0.05,0.014,0.999,0.0,0.0,-0.122,17.004,5.889,-46.241,0.822,2.893,-176.839
2025-09-03 22:29:43.231794,-0.05,0.014,0.999,0.0,0.0,-0.122,17.004,5.85,-46.241,0.822,2.893,-176.843
2025-09-03 22:29:43.252021,-0.05,0.014,0.999,0.0,0.0,-0.122,16.978,5.85,-46.241,0.822,2.893,-176.846
2025-09-03 22:29:43.272139,-0.05,0.014,1.0,0.0,0.0,0.0,17.004,5.824,-46.267,0.822,2.893,-176.849
2025-09-03 22:29:43.292393,-0.05,0.014,0.999,0.0,0.0,-0.122,17.017,5.863,-46.228,0.822,2.893,-176.853
2025-09-03 22:29:43.312639,-0.05,0.014,0.999,0.0,0.0,-0.122,17.004,5.889,-46.241,0.822,2.893,-176.856
2025-09-03 22:29:43.333014,-0.05,0.014,0.999,0.0,0.0,-0.122,16.965,5.954,-46.241,0.822,2.893,-176.86
2025-09-03 22:29:43.353262,-0.05,0.014,0.999,0.0,0.0,0.0,17.004,5.915,-46.241,0.822,2.893,-176.863
2025-09-03 22:29:43.373510,-0.05,0.014,0.999,0.0,0.0,-0.122,17.004,5.889,-46.241,0.822,2.893,-176.866
2025-09-03 22:29:43.393635,-0.05,0.014,0.999,0.0,0.0,-0.122,16.991,5.811,-46.228,0.822,2.893,-176.87
2025-09-03 22:29:43.414007,-0.05,0.014,0.999,0.0,0.0,-0.122,16.978,5.837,-46.228,0.822,2.893,-176.873
2025-09-03 22:29:43.434130,-0.05,0.014,0.999,0.0,0.0,-0.122,16.978,5.876,-46.228,0.822,2.893,-176.877
2025-09-03 22:29:43.454259,-0.05,0.014,0.999,0.0,0.0,-0.122,16.991,5.889,-46.254,0.822,2.893,-176.88
2025-09-03 22:29:43.474502,-0.05,0.014,0.999,0.0,0.0,-0.122,16.978,5.902,-46.254,0.822,2.893,-176.884
2025-09-03 22:29:43.495003,-0.05,0.014,0.999,0.0,0.0,-0.122,16.952,5.889,-46.241,0.822,2.893,-176.887
2025-09-03 22:29:43.515094,-0.05,0.014,0.999,0.0,0.0,-0.122,16.965,5.876,-46.241,0.822,2.893,-176.89
2025-09-03 22:29:43.535375,-0.05,0.014,0.999,0.0,0.0,-0.122,16.978,5.863,-46.241,0.822,2.893,-176.894
2025-09-03 22:29:43.555553,-0.05,0.014,0.999,0.0,0.0,-0.122,16.978,5.837,-46.241,0.822,2.893,-176.897
2025-09-03 22:29:43.575927,-0.05,0.014,0.999,0.0,0.0,-0.122,16.991,5.824,-46.228,0.822,2.893,-176.9
2025-09-03 22:29:43.595924,-0.05,0.014,0.999,0.0,0.0,-0.122,17.004,5.863,-46.215,0.822,2.893,-176.904
2025-09-03 22:29:43.616131,-0.05,0.014,0.999,0.0,0.0,-0.122,16.952,5.902,-46.254,0.822,2.893,-176.907
2025-09-03 22:29:43.636426,-0.05,0.014,0.999,0.0,0.0,-0.122,16.926,5.902,-46.293,0.822,2.893,-176.91
2025-09-03 22:29:43.656795,-0.05,0.014,0.999,0.0,0.0,-0.122,16.952,5.876,-46.241,0.822,2.893,-176.914
2025-09-03 22:29:43.676918,-0.05,0.014,0.999,0.0,0.0,-0.122,16.952,5.85,-46.241,0.822,2.893,-176.917
2025-09-03 22:29:43.697169,-0.05,0.014,0.999,0.0,0.0,-0.122,16.965,5.85,-46.241,0.822,2.893,-176.92
2025-09-03 22:29:43.717412,-0.05,0.014,0.999,0.0,0.0,-0.122,16.991,5.863,-46.241,0.822,2.893,-176.924
2025-09-03 22:29:43.737738,-0.05,0.014,0.999,0.0,0.0,-0.122,16.978,5.889,-46.241,0.822,2.893,-176.927
2025-09-03 22:29:43.757980,-0.05,0.014,0.999,0.0,0.0,-0.122,16.991,5.837,-46.254,0.822,2.893,-176.93
2025-09-03 22:29:43.778103,-0.05,0.014,0.999,0.0,0.0,0.0,17.004,5.876,-46.228,0.822,2.893,-176.933
2025-09-03 22:29:43.798292,-0.05,0.014,0.999,0.0,0.0,-0.122,16.991,5.876,-46.215,0.822,2.893,-176.937
2025-09-03 22:29:43.818531,-0.05,0.014,0.999,0.0,0.0,-0.122,16.965,5.85,-46.254,0.822,2.893,-176.94
2025-09-03 22:29:43.838904,-0.05,0.014,0.999,0.0,0.0,-0.122,17.004,5.876,-46.241,0.822,2.893,-176.944
2025-09-03 22:29:43.859153,-0.05,0.014,0.999,0.0,0.0,-0.122,17.017,5.876,-46.215,0.822,2.893,-176.947
2025-09-03 22:29:43.879239,-0.05,0.014,0.999,0.0,0.0,-0.122,16.978,5.902,-46.241,0.822,2.893,-176.951
2025-09-03 22:29:43.899523,-0.05,0.014,0.999,0.0,0.0,-0.122,16.978,5.902,-46.254,0.822,2.893,-176.954
2025-09-03 22:29:43.919897,-0.05,0.014,0.999,0.0,0.0,-0.122,16.991,5.889,-46.254,0.822,2.893,-176.958
2025-09-03 22:29:43.940020,-0.05,0.014,0.999,0.0,0.0,0.0,16.991,5.85,-46.254,0.822,2.893,-176.961
2025-09-03 22:29:43.960341,-0.05,0.014,0.999,0.0,0.0,-0.122,17.017,5.863,-46.228,0.822,2.893,-176.965
2025-09-03 22:29:43.980540,-0.05,0.014,0.999,0.0,0.0,-0.122,17.017,5.863,-46.228,0.822,2.893,-176.968
2025-09-03 22:29:44.000960,-0.05,0.014,0.999,0.0,0.0,-0.122,16.991,5.876,-46.241,0.822,2.893,-176.972
2025-09-03 22:29:44.021085,-0.05,0.014,0.999,0.0,0.0,-0.122,17.004,5.915,-46.267,0.822,2.893,-176.975
2025-09-03 22:29:44.041332,-0.05,0.014,0.999,0.0,0.0,-0.122,17.03,5.902,-46.228,0.822,2.893,-176.979
2025-09-03 22:29:44.061585,-0.05,0.014,0.999,0.0,0.0,-0.122,17.004,5.902,-46.241,0.822,2.893,-176.982
2025-09-03 22:29:44.081953,-0.05,0.014,0.999,0.0,0.0,-0.122,16.991,5.954,-46.228,0.822,2.893,-176.986
2025-09-03 22:29:44.102080,-0.05,0.014,0.999,0.0,0.0,-0.122,17.03,5.902,-46.228,0.822,2.893,-176.989
2025-09-03 22:29:44.122453,-0.05,0.014,0.999,0.0,0.0,-0.122,17.03,5.876,-46.241,0.822,2.893,-176.993
2025-09-03 22:29:44.142449,-0.05,0.014,0.999,0.0,0.0,-0.122,17.03,5.876,-46.228,0.822,2.893,-176.996
2025-09-03 22:29:44.162828,-0.05,0.014,0.999,0.0,0.0,-0.122,17.03,5.915,-46.241,0.822,2.893,-176.999
2025-09-03 22:29:44.183073,-0.05,0.014,0.999,0.0,0.0,-0.122,17.004,5.941,-46.267,0.822,2.893,-177.002
2025-09-03 22:29:44.203324,-0.05,0.014,0.999,0.0,0.0,-0.122,17.017,5.928,-46.267,0.822,2.893,-177.006
2025-09-03 22:29:44.223572,-0.05,0.014,0.999,0.0,0.0,-0.122,17.017,5.902,-46.241,0.822,2.893,-177.01
2025-09-03 22:29:44.243944,-0.05,0.014,0.999,0.0,0.0,-0.122,17.017,5.85,-46.228,0.822,2.893,-177.013
2025-09-03 22:29:44.264185,-0.05,0.014,0.999,0.0,0.0,-0.122,16.965,5.863,-46.228,0.822,2.893,-177.016
2025-09-03 22:29:44.284314,-0.05,0.014,0.999,0.0,0.0,-0.122,16.978,5.876,-46.228,0.822,2.893,-177.02
2025-09-03 22:29:44.304563,-0.05,0.014,0.999,0.0,0.0,-0.122,16.991,5.902,-46.228,0.822,2.893,-177.023
2025-09-03 22:29:44.324937,-0.05,0.014,0.999,0.0,0.0,-0.122,16.978,5.889,-46.241,0.822,2.893,-177.026
2025-09-03 22:29:44.345058,-0.05,0.014,0.999,0.0,0.0,-0.122,16.965,5.915,-46.202,0.822,2.893,-177.03
2025-09-03 22:29:44.365182,-0.05,0.014,0.999,0.0,0.0,-0.122,16.991,5.889,-46.215,0.822,2.893,-177.033
2025-09-03 22:29:44.385431,-0.05,0.014,0.999,0.0,0.0,-0.122,16.978,5.889,-46.254,0.822,2.893,-177.037
2025-09-03 22:29:44.405805,-0.05,0.014,0.999,0.0,0.0,-0.122,16.978,5.876,-46.241,0.822,2.893,-177.04
2025-09-03 22:29:44.425929,-0.05,0.014,0.999,0.0,0.0,-0.122,16.965,5.85,-46.228,0.822,2.893,-177.043
2025-09-03 22:29:44.446178,-0.05,0.014,0.999,0.0,0.0,-0.122,16.952,5.889,-46.241,0.822,2.893,-177.047
2025-09-03 22:29:44.466300,-0.05,0.014,0.999,0.0,0.0,-0.122,16.965,5.915,-46.241,0.822,2.893,-177.05
2025-09-03 22:29:44.486551,-0.05,0.014,0.999,0.0,0.0,-0.122,16.965,5.915,-46.228,0.822,2.893,-177.054
2025-09-03 22:29:44.506922,-0.05,0.014,0.999,0.0,0.0,-0.122,16.965,5.85,-46.228,0.822,2.893,-177.057
2025-09-03 22:29:44.527045,-0.05,0.014,0.999,0.0,0.0,-0.122,16.965,5.889,-46.189,0.822,2.893,-177.061
2025-09-03 22:29:44.547295,-0.05,0.014,0.999,0.0,0.0,-0.122,16.991,5.876,-46.215,0.822,2.893,-177.064
2025-09-03 22:29:44.567416,-0.05,0.014,0.999,0.0,0.0,-0.122,16.965,5.876,-46.241,0.822,2.893,-177.067
2025-09-03 22:29:44.587794,-0.05,0.014,0.999,0.0,0.0,-0.122,16.991,5.902,-46.254,0.822,2.893,-177.071
2025-09-03 22:29:44.608039,-0.05,0.014,0.999,0.0,0.0,-0.122,16.965,5.902,-46.241,0.822,2.893,-177.074
2025-09-03 22:29:44.628164,-0.05,0.014,0.999,0.0,0.0,-0.122,16.939,5.902,-46.241,0.822,2.893,-177.078
2025-09-03 22:29:44.648415,-0.05,0.014,0.999,0.0,0.0,-0.122,16.978,5.889,-46.241,0.822,2.893,-177.081
2025-09-03 22:29:44.668910,-0.05,0.014,0.999,0.0,0.0,-0.122,16.991,5.863,-46.241,0.822,2.893,-177.085
2025-09-03 22:29:44.688908,-0.05,0.014,0.999,0.0,0.0,-0.122,16.965,5.811,-46.254,0.822,2.893,-177.088
2025-09-03 22:29:44.709282,-0.05,0.014,0.999,0.0,0.0,0.0,16.965,5.85,-46.215,0.822,2.893,-177.091
2025-09-03 22:29:44.729405,-0.05,0.014,0.999,0.0,0.0,-0.122,16.978,5.863,-46.228,0.822,2.893,-177.095
2025-09-03 22:29:44.749836,-0.05,0.014,0.999,0.0,0.0,-0.122,16.991,5.915,-46.241,0.822,2.893,-177.098
2025-09-03 22:29:44.769832,-0.05,0.014,0.999,0.0,0.0,-0.122,17.017,5.915,-46.241,0.822,2.893,-177.102
2025-09-03 22:29:44.790085,-0.05,0.014,0.999,0.0,0.0,0.0,16.965,5.837,-46.228,0.821,2.893,-177.105
2025-09-03 22:29:44.810203,-0.05,0.014,0.999,0.0,0.0,-0.122,16.978,5.837,-46.228,0.821,2.893,-177.108
2025-09-03 22:29:44.830451,-0.05,0.014,0.999,0.0,0.0,-0.122,16.991,5.85,-46.241,0.821,2.893,-177.112
2025-09-03 22:29:44.850708,-0.05,0.014,0.999,0.0,0.0,-0.122,17.004,5.863,-46.254,0.821,2.893,-177.115
2025-09-03 22:29:44.870952,-0.05,0.014,0.999,0.0,0.0,-0.122,17.017,5.837,-46.254,0.821,2.893,-177.119
2025-09-03 22:29:44.891150,-0.05,0.014,0.999,0.0,0.0,-0.122,16.991,5.902,-46.228,0.821,2.893,-177.122
2025-09-03 22:29:44.911407,-0.05,0.014,0.999,0.0,0.0,-0.122,17.03,5.876,-46.241,0.821,2.893,-177.126
2025-09-03 22:29:44.931777,-0.05,0.014,0.999,0.0,0.0,-0.122,16.978,5.863,-46.241,0.821,2.893,-177.129
2025-09-03 22:29:44.951732,-0.05,0.014,0.999,0.0,0.0,-0.122,17.03,5.85,-46.241,0.821,2.893,-177.132
2025-09-03 22:29:44.972025,-0.05,0.014,0.999,0.0,0.0,0.0,16.965,5.811,-46.241,0.821,2.893,-177.136
2025-09-03 22:29:44.992399,-0.05,0.014,0.999,0.0,0.0,-0.122,16.978,5.863,-46.241,0.821,2.892,-177.139
2025-09-03 22:29:45.012773,-0.05,0.014,0.999,0.0,0.0,-0.183,16.991,5.889,-46.241,0.821,2.892,-177.143
2025-09-03 22:29:45.032770,-0.05,0.014,0.999,0.0,0.0,-0.122,17.004,5.915,-46.241,0.821,2.892,-177.146
2025-09-03 22:29:45.053020,-0.05,0.014,0.999,0.0,0.0,-0.122,16.978,5.837,-46.254,0.821,2.892,-177.15
2025-09-03 22:29:45.073266,-0.05,0.014,0.999,0.0,0.0,-0.122,16.978,5.863,-46.215,0.821,2.892,-177.153
2025-09-03 22:29:45.093640,-0.05,0.014,0.999,0.0,0.0,-0.122,16.978,5.837,-46.241,0.821,2.892,-177.157
2025-09-03 22:29:45.113888,-0.05,0.014,0.999,0.0,0.0,-0.122,16.991,5.85,-46.241,0.821,2.892,-177.16
2025-09-03 22:29:45.134012,-0.05,0.014,0.999,0.0,0.0,0.0,17.004,5.876,-46.267,0.821,2.892,-177.164
2025-09-03 22:29:45.154262,-0.05,0.014,0.999,0.0,0.0,-0.122,17.017,5.902,-46.241,0.821,2.893,-177.167
2025-09-03 22:29:45.174499,-0.05,0.014,0.999,0.0,0.0,-0.122,16.991,5.902,-46.267,0.821,2.893,-177.171
2025-09-03 22:29:45.194748,-0.05,0.014,0.999,0.0,0.0,-0.122,16.965,5.941,-46.241,0.821,2.893,-177.174
2025-09-03 22:29:45.214871,-0.05,0.014,0.999,0.0,0.0,-0.122,16.978,5.902,-46.241,0.821,2.892,-177.177
2025-09-03 22:29:45.235119,-0.05,0.014,0.999,0.0,0.0,-0.122,17.004,5.811,-46.254,0.821,2.892,-177.181
2025-09-03 22:29:45.255546,-0.05,0.014,0.999,0.0,0.0,-0.122,17.017,5.837,-46.241,0.821,2.892,-177.184
2025-09-03 22:29:45.275795,-0.05,0.014,0.999,0.0,0.0,-0.122,17.03,5.863,-46.228,0.821,2.892,-177.187
2025-09-03 22:29:45.296414,-0.05,0.014,0.999,0.0,0.0,-0.122,16.991,5.889,-46.254,0.821,2.892,-177.191
2025-09-03 22:29:45.316790,-0.05,0.014,0.999,0.0,0.0,-0.122,17.004,5.902,-46.267,0.821,2.892,-177.194
2025-09-03 22:29:45.336912,-0.05,0.014,0.999,0.0,0.0,-0.122,17.043,5.902,-46.254,0.821,2.892,-177.198
2025-09-03 22:29:45.357407,-0.05,0.014,0.999,0.0,0.0,-0.122,17.004,5.863,-46.228,0.821,2.892,-177.201
2025-09-03 22:29:45.377738,-0.05,0.014,0.999,0.0,0.0,-0.122,17.017,5.85,-46.228,0.821,2.892,-177.204
2025-09-03 22:29:45.398284,-0.05,0.014,0.999,0.0,0.0,-0.122,17.004,5.863,-46.228,0.821,2.892,-177.208
2025-09-03 22:29:45.418779,-0.05,0.014,0.999,0.0,0.0,-0.122,16.978,5.863,-46.228,0.821,2.892,-177.211
2025-09-03 22:29:45.439154,-0.05,0.014,0.999,0.0,0.0,-0.122,16.991,5.915,-46.228,0.821,2.892,-177.214
2025-09-03 22:29:45.459776,-0.05,0.014,1.0,0.0,0.0,-0.122,16.978,5.902,-46.254,0.821,2.892,-177.218
2025-09-03 22:29:45.480026,-0.05,0.014,0.999,0.0,0.0,0.0,16.978,5.863,-46.254,0.821,2.892,-177.221
2025-09-03 22:29:45.500773,-0.05,0.014,0.999,0.0,0.0,-0.122,16.991,5.889,-46.228,0.821,2.892,-177.225
2025-09-03 22:29:45.521021,-0.05,0.014,1.0,0.0,0.0,-0.122,17.004,5.863,-46.215,0.821,2.892,-177.228
2025-09-03 22:29:45.541395,-0.05,0.014,1.0,0.0,0.0,-0.122,16.991,5.863,-46.228,0.821,2.892,-177.231
2025-09-03 22:29:45.561850,-0.05,0.014,1.0,0.0,0.0,-0.122,17.03,5.889,-46.254,0.821,2.892,-177.235
2025-09-03 22:29:45.582097,-0.05,0.014,0.999,0.0,0.0,-0.122,17.056,5.928,-46.241,0.821,2.892,-177.238
2025-09-03 22:29:45.602516,-0.05,0.014,0.999,0.0,0.0,-0.122,17.03,5.928,-46.254,0.821,2.892,-177.242
2025-09-03 22:29:45.623016,-0.05,0.014,0.999,0.0,0.0,-0.122,17.004,5.902,-46.254,0.821,2.893,-177.245
2025-09-03 22:29:45.643762,-0.05,0.014,0.999,0.0,0.0,-0.122,16.952,5.889,-46.228,0.821,2.893,-177.248
2025-09-03 22:29:45.663891,-0.05,0.014,0.999,0.0,0.0,-0.122,16.965,5.889,-46.228,0.821,2.893,-177.251
2025-09-03 22:29:45.684388,-0.05,0.014,0.999,0.0,0.0,-0.122,16.991,5.902,-46.241,0.821,2.893,-177.255
2025-09-03 22:29:45.704887,-0.05,0.014,0.999,0.0,0.0,-0.122,16.991,5.902,-46.254,0.821,2.893,-177.258
2025-09-03 22:29:45.725257,-0.05,0.014,0.999,0.0,0.0,-0.122,17.004,5.876,-46.254,0.821,2.893,-177.262
2025-09-03 22:29:45.745753,-0.05,0.014,0.999,0.0,0.0,-0.122,16.991,5.928,-46.254,0.821,2.893,-177.265
2025-09-03 22:29:45.766008,-0.05,0.014,0.999,0.0,0.0,-0.122,17.004,5.889,-46.215,0.821,2.893,-177.268
2025-09-03 22:29:45.786759,-0.05,0.014,0.999,0.0,0.0,-0.122,16.991,5.889,-46.228,0.822,2.893,-177.272
2025-09-03 22:29:45.807125,-0.05,0.014,0.999,0.0,0.0,-0.122,16.991,5.889,-46.254,0.822,2.892,-177.275
2025-09-03 22:29:45.827373,-0.05,0.014,0.999,0.0,0.0,-0.122,17.004,5.863,-46.267,0.822,2.892,-177.278
2025-09-03 22:29:45.847751,-0.05,0.014,0.999,0.0,0.0,-0.122,17.004,5.876,-46.241,0.822,2.892,-177.282
2025-09-03 22:29:45.868247,-0.05,0.014,0.999,0.0,0.0,-0.122,16.965,5.876,-46.241,0.822,2.892,-177.285
2025-09-03 22:29:45.888744,-0.05,0.014,0.999,0.0,0.0,-0.122,16.991,5.915,-46.254,0.822,2.892,-177.289
2025-09-03 22:29:45.909116,-0.05,0.014,0.999,0.0,0.0,-0.122,16.965,5.915,-46.241,0.822,2.892,-177.292
2025-09-03 22:29:45.929741,-0.05,0.014,0.999,0.0,0.0,-0.122,17.004,5.876,-46.228,0.822,2.892,-177.295
2025-09-03 22:29:45.949934,-0.05,0.014,1.0,0.0,0.0,-0.122,16.991,5.876,-46.241,0.822,2.892,-177.299
2025-09-03 22:29:45.970435,-0.05,0.014,1.0,0.0,0.0,-0.122,16.978,5.85,-46.254,0.822,2.892,-177.302
2025-09-03 22:29:45.990763,-0.05,0.014,1.0,0.0,0.0,-0.122,16.991,5.876,-46.241,0.822,2.893,-177.305
2025-09-03 22:29:46.011302,-0.05,0.014,1.0,0.0,0.0,0.0,16.991,5.863,-46.241,0.822,2.893,-177.309
2025-09-03 22:29:46.031552,-0.05,0.014,1.0,0.0,0.0,-0.122,16.978,5.902,-46.254,0.822,2.893,-177.312
2025-09-03 22:29:46.051981,-0.05,0.014,1.0,0.0,0.0,-0.122,16.965,5.915,-46.254,0.822,2.893,-177.315
2025-09-03 22:29:46.072422,-0.05,0.014,1.0,0.0,0.0,-0.122,17.004,5.889,-46.293,0.822,2.893,-177.319
2025-09-03 22:29:46.092921,-0.05,0.014,0.999,0.0,0.0,-0.122,17.004,5.863,-46.228,0.822,2.893,-177.322
2025-09-03 22:29:46.113295,-0.05,0.014,0.999,0.0,0.0,-0.122,17.03,5.85,-46.228,0.822,2.893,-177.326
2025-09-03 22:29:46.133792,-0.05,0.014,0.999,0.0,0.0,-0.122,17.004,5.876,-46.254,0.822,2.893,-177.329
2025-09-03 22:29:46.154039,-0.05,0.014,0.999,0.0,0.0,0.0,16.952,5.902,-46.254,0.822,2.893,-177.332
2025-09-03 22:29:46.174671,-0.05,0.014,0.999,0.0,0.0,-0.122,17.017,5.902,-46.254,0.822,2.893,-177.335
2025-09-03 22:29:46.195012,-0.05,0.014,0.999,0.0,0.0,-0.122,17.004,5.915,-46.254,0.822,2.893,-177.339
2025-09-03 22:29:46.215417,-0.05,0.014,0.999,0.0,0.0,-0.122,16.991,5.876,-46.254,0.822,2.893,-177.343
2025-09-03 22:29:46.235916,-0.05,0.014,0.999,0.0,0.0,-0.122,17.004,5.85,-46.241,0.822,2.893,-177.346
2025-09-03 22:29:46.256166,-0.05,0.014,0.999,0.0,0.0,-0.122,16.991,5.837,-46.202,0.822,2.893,-177.349
2025-09-03 22:29:46.276845,-0.05,0.014,0.999,0.0,0.0,-0.122,16.991,5.85,-46.228,0.822,2.893,-177.353
2025-09-03 22:29:46.297090,-0.05,0.014,0.999,0.0,0.0,0.0,16.991,5.876,-46.254,0.822,2.893,-177.356
2025-09-03 22:29:46.317708,-0.05,0.014,0.999,0.0,0.0,-0.122,16.991,5.889,-46.293,0.822,2.893,-177.36
2025-09-03 22:29:46.338083,-0.05,0.014,0.999,0.0,0.0,-0.122,17.017,5.889,-46.241,0.822,2.893,-177.363
2025-09-03 22:29:46.358706,-0.05,0.014,0.999,0.0,0.0,-0.122,17.004,5.863,-46.241,0.822,2.892,-177.366
2025-09-03 22:29:46.378955,-0.05,0.014,0.999,0.0,0.0,-0.122,16.978,5.837,-46.241,0.822,2.892,-177.37
2025-09-03 22:29:46.399331,-0.05,0.014,0.999,0.0,0.0,-0.122,16.965,5.863,-46.228,0.822,2.892,-177.373
2025-09-03 22:29:46.419829,-0.05,0.014,0.999,0.0,0.0,-0.122,16.978,5.876,-46.228,0.822,2.892,-177.377
2025-09-03 22:29:46.440328,-0.05,0.014,0.999,0.0,0.0,-0.122,16.991,5.928,-46.241,0.822,2.892,-177.38
2025-09-03 22:29:46.460697,-0.05,0.014,0.999,0.0,0.0,-0.122,16.978,5.902,-46.241,0.822,2.892,-177.383
2025-09-03 22:29:46.481153,-0.05,0.014,0.999,0.0,0.0,0.0,16.965,5.85,-46.254,0.822,2.892,-177.387
2025-09-03 22:29:46.501660,-0.05,0.014,0.999,0.0,0.0,-0.122,16.978,5.889,-46.241,0.822,2.892,-177.39
2025-09-03 22:29:46.522026,-0.05,0.014,0.999,0.0,0.0,-0.122,17.004,5.85,-46.228,0.822,2.892,-177.393
2025-09-03 22:29:46.542320,-0.05,0.014,0.999,0.0,0.0,-0.122,16.991,5.85,-46.241,0.822,2.893,-177.397
2025-09-03 22:29:46.562818,-0.05,0.014,0.999,0.0,0.0,-0.122,17.004,5.902,-46.254,0.822,2.893,-177.4
2025-09-03 22:29:46.583193,-0.05,0.014,0.999,0.0,0.0,0.0,17.056,5.941,-46.254,0.822,2.893,-177.403
2025-09-03 22:29:46.603444,-0.05,0.014,0.999,0.0,0.0,-0.122,17.017,5.915,-46.267,0.822,2.893,-177.407
2025-09-03 22:29:46.623935,-0.05,0.014,0.999,0.0,0.0,-0.122,16.991,5.876,-46.241,0.823,2.892,-177.41
2025-09-03 22:29:46.644434,-0.05,0.014,0.999,0.0,0.0,-0.122,16.978,5.876,-46.228,0.823,2.892,-177.414
2025-09-03 22:29:46.664808,-0.05,0.014,0.999,0.0,0.0,-0.122,17.017,5.876,-46.228,0.823,2.892,-177.417
2025-09-03 22:29:46.685265,-0.05,0.014,0.999,0.0,0.0,-0.122,17.017,5.889,-46.241,0.823,2.892,-177.421
2025-09-03 22:29:46.705748,-0.05,0.014,0.999,0.0,0.0,-0.122,17.017,5.889,-46.241,0.823,2.892,-177.424
2025-09-03 22:29:46.726246,-0.05,0.014,0.999,0.0,0.0,0.0,17.03,5.863,-46.254,0.823,2.892,-177.427
2025-09-03 22:29:46.746747,-0.05,0.014,0.999,0.0,0.0,-0.122,17.03,5.954,-46.254,0.823,2.892,-177.431
2025-09-03 22:29:46.767118,-0.05,0.014,0.999,0.0,0.0,-0.122,17.017,5.915,-46.228,0.823,2.892,-177.434
2025-09-03 22:29:46.787322,-0.05,0.014,0.999,0.0,0.0,-0.122,17.004,5.889,-46.228,0.823,2.892,-177.438
2025-09-03 22:29:46.807991,-0.05,0.014,0.999,0.0,0.0,-0.122,17.017,5.876,-46.254,0.823,2.892,-177.441
2025-09-03 22:29:46.828490,-0.05,0.014,0.999,0.0,0.0,-0.122,17.017,5.876,-46.28,0.823,2.892,-177.444
2025-09-03 22:29:46.848861,-0.05,0.014,0.999,0.0,0.0,-0.122,17.03,5.876,-46.228,0.823,2.892,-177.448
2025-09-03 22:29:46.869359,-0.05,0.014,0.999,0.0,0.0,-0.122,17.03,5.889,-46.241,0.823,2.892,-177.451
2025-09-03 22:29:46.889722,-0.05,0.014,0.999,0.0,0.0,-0.122,17.004,5.902,-46.254,0.823,2.892,-177.454
2025-09-03 22:29:46.910110,-0.05,0.014,0.999,0.0,0.0,-0.122,16.991,5.941,-46.254,0.823,2.892,-177.457
2025-09-03 22:29:46.930488,-0.05,0.014,0.999,0.0,0.0,-0.122,16.978,5.889,-46.241,0.823,2.892,-177.461
2025-09-03 22:29:46.950815,-0.05,0.014,0.999,0.0,0.0,-0.122,17.004,5.876,-46.241,0.823,2.892,-177.464
2025-09-03 22:29:46.971233,-0.05,0.014,0.999,0.0,0.0,-0.122,17.004,5.824,-46.254,0.823,2.892,-177.467
2025-09-03 22:29:46.991735,-0.05,0.014,0.999,0.0,0.0,-0.122,17.004,5.876,-46.254,0.823,2.892,-177.471
2025-09-03 22:29:47.011980,-0.05,0.014,0.999,0.0,0.0,-0.122,16.991,5.876,-46.241,0.824,2.892,-177.474
2025-09-03 22:29:47.032604,-0.05,0.014,0.999,0.0,0.0,-0.122,16.965,5.902,-46.254,0.824,2.893,-177.477
2025-09-03 22:29:47.053102,-0.05,0.014,0.999,0.0,0.0,-0.122,16.965,5.902,-46.267,0.824,2.893,-177.481
2025-09-03 22:29:47.073601,-0.05,0.014,0.999,0.0,0.0,-0.122,16.965,5.85,-46.28,0.824,2.893,-177.484
2025-09-03 22:29:47.093723,-0.05,0.014,0.999,0.0,0.0,-0.122,17.004,5.85,-46.254,0.824,2.893,-177.488
2025-09-03 22:29:47.114222,-0.05,0.014,0.999,0.0,0.0,-0.122,16.991,5.824,-46.267,0.824,2.893,-177.491
2025-09-03 22:29:47.134595,-0.05,0.014,0.999,0.0,0.0,-0.122,16.991,5.889,-46.267,0.824,2.893,-177.495
2025-09-03 22:29:47.155092,-0.05,0.014,0.999,0.0,0.0,0.0,16.978,5.928,-46.254,0.824,2.892,-177.498
2025-09-03 22:29:47.175469,-0.05,0.014,0.999,0.0,0.0,-0.122,17.004,5.902,-46.267,0.824,2.892,-177.502
2025-09-03 22:29:47.195965,-0.05,0.014,0.999,0.0,0.0,-0.122,16.991,5.876,-46.254,0.824,2.892,-177.505
2025-09-03 22:29:47.216214,-0.05,0.014,0.999,0.0,0.0,-0.122,17.004,5.811,-46.254,0.824,2.892,-177.509
2025-09-03 22:29:47.236713,-0.05,0.014,0.999,0.0,0.0,-0.122,16.991,5.837,-46.254,0.824,2.892,-177.512
2025-09-03 22:29:47.257211,-0.05,0.014,0.999,0.0,0.0,0.0,16.991,5.837,-46.228,0.824,2.892,-177.516
2025-09-03 22:29:47.277584,-0.05,0.014,0.999,0.0,0.0,-0.122,16.978,5.863,-46.241,0.824,2.892,-177.519
2025-09-03 22:29:47.298084,-0.05,0.014,0.999,0.0,0.0,-0.122,16.991,5.889,-46.267,0.824,2.892,-177.523
2025-09-03 22:29:47.318582,-0.05,0.014,0.999,0.0,0.0,-0.122,16.978,5.902,-46.293,0.824,2.892,-177.526
2025-09-03 22:29:47.338954,-0.05,0.014,0.999,0.0,0.0,-0.122,16.991,5.902,-46.254,0.824,2.892,-177.53
2025-09-03 22:29:47.359582,-0.05,0.014,0.999,0.0,0.0,-0.122,17.004,5.85,-46.241,0.824,2.892,-177.533
2025-09-03 22:29:47.379827,-0.05,0.014,0.999,0.0,0.0,-0.122,17.004,5.837,-46.254,0.824,2.892,-177.537
2025-09-03 22:29:47.400075,-0.05,0.014,0.999,0.0,0.0,-0.122,17.03,5.863,-46.254,0.824,2.892,-177.54
2025-09-03 22:29:47.420573,-0.05,0.014,0.999,0.0,0.0,-0.183,17.056,5.889,-46.241,0.824,2.892,-177.544
2025-09-03 22:29:47.441152,-0.05,0.014,0.999,0.0,0.0,0.0,17.043,5.915,-46.241,0.824,2.892,-177.547
2025-09-03 22:29:47.461542,-0.05,0.014,0.999,0.0,0.0,-0.122,16.991,5.915,-46.254,0.824,2.892,-177.551
2025-09-03 22:29:47.482083,-0.05,0.014,0.999,0.0,0.0,-0.122,16.978,5.837,-46.254,0.825,2.892,-177.554
2025-09-03 22:29:47.502578,-0.05,0.014,0.999,0.0,0.0,-0.122,16.965,5.824,-46.228,0.825,2.892,-177.558
2025-09-03 22:29:47.522819,-0.05,0.014,0.999,0.0,0.0,-0.122,16.978,5.863,-46.228,0.825,2.893,-177.561
2025-09-03 22:29:47.543191,-0.05,0.014,0.999,0.0,0.0,-0.122,16.952,5.902,-46.267,0.825,2.893,-177.565
2025-09-03 22:29:47.563687,-0.05,0.014,0.999,0.0,0.0,-0.122,16.991,5.915,-46.254,0.825,2.893,-177.568
2025-09-03 22:29:47.584060,-0.05,0.014,0.999,0.0,0.0,0.0,17.017,5.928,-46.254,0.825,2.893,-177.571
2025-09-03 22:29:47.604562,-0.05,0.014,0.999,0.0,0.0,-0.122,16.952,5.915,-46.267,0.825,2.893,-177.575
2025-09-03 22:29:47.625012,-0.05,0.014,0.999,0.0,0.0,-0.122,16.965,5.85,-46.241,0.825,2.893,-177.579
2025-09-03 22:29:47.645556,-0.05,0.014,0.999,0.0,0.0,-0.122,16.978,5.889,-46.241,0.825,2.893,-177.582
2025-09-03 22:29:47.665931,-0.05,0.014,0.999,0.0,0.0,-0.122,16.952,5.954,-46.254,0.825,2.893,-177.586
2025-09-03 22:29:47.686188,-0.05,0.014,0.999,0.0,0.0,-0.122,16.978,5.902,-46.254,0.825,2.893,-177.589
2025-09-03 22:29:47.706687,-0.05,0.014,0.999,0.0,0.0,-0.122,16.991,5.915,-46.267,0.825,2.893,-177.593
2025-09-03 22:29:47.727060,-0.05,0.014,0.999,0.0,0.0,-0.122,16.978,5.941,-46.241,0.825,2.893,-177.596
2025-09-03 22:29:47.747559,-0.05,0.014,0.999,0.0,0.0,-0.122,16.991,5.889,-46.241,0.825,2.893,-177.599
2025-09-03 22:29:47.767932,-0.05,0.014,0.999,0.0,0.0,-0.122,16.965,5.863,-46.241,0.825,2.893,-177.603
2025-09-03 22:29:47.788554,-0.05,0.014,0.999,0.0,0.0,-0.122,16.978,5.876,-46.241,0.825,2.893,-177.606
2025-09-03 22:29:47.808932,-0.05,0.014,0.999,0.0,0.0,-0.122,16.965,5.889,-46.241,0.825,2.893,-177.61
2025-09-03 22:29:47.829553,-0.05,0.014,0.999,0.0,0.0,-0.122,16.991,5.876,-46.241,0.825,2.893,-177.613
2025-09-03 22:29:47.849800,-0.05,0.014,0.999,0.0,0.0,-0.122,17.004,5.889,-46.267,0.825,2.893,-177.616
2025-09-03 22:29:47.870214,-0.05,0.014,1.0,0.0,0.0,-0.122,16.978,5.889,-46.267,0.825,2.893,-177.62
2025-09-03 22:29:47.890673,-0.05,0.014,1.0,0.0,0.0,-0.122,16.952,5.902,-46.267,0.825,2.893,-177.623
2025-09-03 22:29:47.911170,-0.05,0.014,1.0,0.0,0.0,0.0,16.978,5.915,-46.254,0.825,2.893,-177.626
2025-09-03 22:29:47.931542,-0.05,0.014,1.0,0.0,0.0,-0.122,16.965,5.837,-46.241,0.825,2.893,-177.63
2025-09-03 22:29:47.952042,-0.05,0.014,1.0,0.366,0.0,-0.122,16.991,5.85,-46.254,0.831,2.893,-177.633
2025-09-03 22:29:47.972542,-0.05,0.014,1.0,0.427,0.061,-0.122,16.991,5.863,-46.267,0.841,2.895,-177.636
2025-09-03 22:29:47.992790,-0.05,0.014,0.999,0.305,0.0,-0.122,16.991,5.837,-46.28,0.848,2.896,-177.638
2025-09-03 22:29:48.013163,-0.05,0.014,0.999,0.244,0.0,-0.122,16.978,5.824,-46.228,0.854,2.896,-177.642
2025-09-03 22:29:48.033662,-0.05,0.014,0.999,0.183,0.0,-0.122,16.952,5.863,-46.267,0.858,2.896,-177.645
2025-09-03 22:29:48.054285,-0.05,0.014,0.999,0.0,0.0,-0.122,16.965,5.837,-46.293,0.86,2.897,-177.648
2025-09-03 22:29:48.074658,-0.05,0.014,0.999,-0.061,0.0,-0.122,16.965,5.811,-46.267,0.858,2.897,-177.651
2025-09-03 22:29:48.095152,-0.05,0.014,0.999,0.0,-0.061,0.0,17.017,5.811,-46.28,0.856,2.896,-177.655
2025-09-03 22:29:48.115695,-0.051,0.015,1.0,0.0,0.0,-0.122,16.991,5.824,-46.28,0.855,2.896,-177.658
2025-09-03 22:29:48.135942,-0.051,0.015,1.0,0.0,0.0,-0.122,16.965,5.798,-46.267,0.856,2.897,-177.662
2025-09-03 22:29:48.156566,-0.051,0.015,1.0,-0.122,0.0,-0.122,17.004,5.837,-46.254,0.854,2.897,-177.665
2025-09-03 22:29:48.176816,-0.051,0.015,1.0,-0.061,-0.061,-0.183,16.952,5.902,-46.28,0.852,2.895,-177.669
2025-09-03 22:29:48.197566,-0.051,0.015,1.0,0.0,0.0,-0.122,16.952,5.837,-46.254,0.852,2.895,-177.673
2025-09-03 22:29:48.217936,-0.051,0.015,1.0,-0.061,0.0,-0.122,16.991,5.798,-46.254,0.852,2.896,-177.676
2025-09-03 22:29:48.238189,-0.051,0.015,1.0,-0.122,-0.061,-0.122,17.004,5.798,-46.28,0.849,2.896,-177.679
2025-09-03 22:29:48.258558,-0.051,0.015,1.0,-0.061,-0.061,-0.122,17.017,5.759,-46.267,0.847,2.894,-177.683
2025-09-03 22:29:48.279056,-0.051,0.015,1.0,0.0,0.0,-0.122,16.978,5.824,-46.267,0.846,2.894,-177.686
2025-09-03 22:29:48.299561,-0.051,0.015,1.0,0.0,0.0,-0.122,17.004,5.85,-46.267,0.846,2.896,-177.689
2025-09-03 22:29:48.319895,-0.051,0.015,1.0,-0.122,0.0,-0.183,17.004,5.85,-46.267,0.846,2.896,-177.693
2025-09-03 22:29:48.340513,-0.051,0.015,1.0,-0.183,0.0,-0.122,17.043,5.85,-46.267,0.842,2.894,-177.696
2025-09-03 22:29:48.360762,-0.051,0.015,1.0,-0.244,0.0,-0.122,17.03,5.824,-46.267,0.838,2.894,-177.7
2025-09-03 22:29:48.381260,-0.051,0.016,0.999,-0.061,0.0,-0.122,17.004,5.785,-46.267,0.836,2.894,-177.703
2025-09-03 22:29:48.401760,-0.051,0.016,0.999,0.0,0.0,-0.122,17.043,5.837,-46.254,0.837,2.894,-177.707
2025-09-03 22:29:48.422141,-0.051,0.015,0.999,-0.122,0.0,-0.122,17.03,5.876,-46.267,0.837,2.894,-177.71
2025-09-03 22:29:48.442632,-0.051,0.015,0.999,-0.305,0.0,-0.122,17.004,5.889,-46.254,0.833,2.894,-177.714
2025-09-03 22:29:48.462879,-0.051,0.015,0.999,-0.244,0.0,-0.183,16.991,5.85,-46.254,0.828,2.894,-177.717
2025-09-03 22:29:48.483502,-0.051,0.015,0.999,-0.122,0.0,-0.122,17.004,5.863,-46.28,0.825,2.893,-177.721
2025-09-03 22:29:48.503750,-0.051,0.015,0.999,-0.183,0.0,-0.122,17.004,5.837,-46.241,0.823,2.893,-177.725
2025-09-03 22:29:48.524537,-0.051,0.015,0.999,-0.305,0.0,-0.122,17.004,5.824,-46.241,0.819,2.894,-177.728
2025-09-03 22:29:48.544790,-0.051,0.015,0.999,-0.183,-0.061,-0.183,16.991,5.863,-46.267,0.814,2.893,-177.732
2025-09-03 22:29:48.565248,-0.051,0.015,0.999,0.0,0.0,-0.122,16.991,5.915,-46.293,0.815,2.892,-177.736
2025-09-03 22:29:48.585743,-0.051,0.015,0.999,0.0,0.061,-0.122,17.004,5.902,-46.267,0.817,2.893,-177.739
2025-09-03 22:29:48.605992,-0.051,0.015,0.999,-0.183,0.0,-0.122,17.043,5.915,-46.293,0.817,2.895,-177.742
2025-09-03 22:29:48.626490,-0.051,0.015,0.999,-0.305,-0.122,-0.183,16.991,5.863,-46.28,0.812,2.894,-177.745
2025-09-03 22:29:48.646990,-0.051,0.015,0.999,-0.122,-0.061,-0.183,16.991,5.837,-46.254,0.808,2.891,-177.749
2025-09-03 22:29:48.667486,-0.051,0.015,0.999,0.0,0.061,-0.122,16.991,5.837,-46.267,0.808,2.892,-177.752
2025-09-03 22:29:48.687859,-0.051,0.015,0.999,-0.061,0.061,-0.122,16.965,5.928,-46.28,0.809,2.894,-177.755
2025-09-03 22:29:48.708491,-0.051,0.015,0.999,-0.183,-0.061,-0.183,16.965,5.928,-46.267,0.806,2.894,-177.759
2025-09-03 22:29:48.728734,-0.051,0.015,0.999,-0.122,-0.061,-0.122,17.004,5.928,-46.267,0.804,2.892,-177.763
2025-09-03 22:29:48.749230,-0.05,0.015,0.999,-0.061,0.061,0.0,16.991,5.902,-46.267,0.803,2.892,-177.766
2025-09-03 22:29:48.769521,-0.05,0.015,0.999,-0.061,0.0,-0.122,16.991,5.824,-46.267,0.802,2.894,-177.769
2025-09-03 22:29:48.789896,-0.05,0.015,0.999,-0.183,-0.061,-0.122,16.991,5.863,-46.241,0.801,2.893,-177.772
2025-09-03 22:29:48.810515,-0.05,0.015,0.999,-0.122,-0.061,-0.122,16.991,5.85,-46.28,0.798,2.891,-177.776
2025-09-03 22:29:48.830895,-0.05,0.015,0.999,-0.061,0.0,-0.122,16.991,5.876,-46.254,0.797,2.891,-177.779
2025-09-03 22:29:48.851516,-0.05,0.015,0.999,-0.061,0.0,-0.122,17.03,5.889,-46.267,0.797,2.892,-177.783
2025-09-03 22:29:48.871886,-0.051,0.015,0.999,-0.122,-0.061,-0.122,17.004,5.902,-46.293,0.796,2.892,-177.786
2025-09-03 22:29:48.892134,-0.051,0.015,0.999,-0.061,0.0,-0.122,16.978,5.889,-46.28,0.795,2.891,-177.79
2025-09-03 22:29:48.912634,-0.051,0.015,1.0,0.0,0.0,-0.122,16.965,5.85,-46.267,0.794,2.891,-177.793
2025-09-03 22:29:48.933005,-0.051,0.015,1.0,0.0,0.0,-0.122,16.965,5.902,-46.267,0.795,2.892,-177.796
2025-09-03 22:29:48.953514,-0.051,0.015,0.999,-0.061,0.0,-0.122,16.965,5.85,-46.254,0.796,2.892,-177.8
2025-09-03 22:29:48.973757,-0.051,0.015,0.999,-0.183,0.0,-0.122,17.004,5.85,-46.267,0.794,2.891,-177.803
2025-09-03 22:29:48.994212,-0.051,0.015,1.0,-0.122,0.0,0.0,16.991,5.876,-46.28,0.792,2.891,-177.807
2025-09-03 22:29:49.014585,-0.051,0.015,0.999,0.0,0.0,-0.122,16.991,5.811,-46.267,0.792,2.892,-177.81
2025-09-03 22:29:49.035085,-0.051,0.015,0.999,0.0,0.0,-0.122,16.965,5.863,-46.267,0.793,2.892,-177.813
2025-09-03 22:29:49.055582,-0.051,0.015,0.999,-0.061,0.0,-0.122,16.978,5.824,-46.254,0.793,2.891,-177.817
2025-09-03 22:29:49.075954,-0.051,0.015,0.999,-0.122,0.0,-0.122,16.991,5.837,-46.254,0.791,2.891,-177.821
2025-09-03 22:29:49.096453,-0.051,0.015,0.999,-0.061,0.0,-0.122,17.017,5.837,-46.254,0.789,2.891,-177.824
2025-09-03 22:29:49.116703,-0.051,0.015,0.999,0.0,0.0,-0.122,16.991,5.85,-46.267,0.789,2.891,-177.827
2025-09-03 22:29:49.137075,-0.051,0.015,0.999,0.0,0.0,0.0,16.978,5.837,-46.254,0.79,2.891,-177.83
2025-09-03 22:29:49.157574,-0.051,0.015,0.999,-0.122,0.0,-0.122,17.017,5.876,-46.254,0.79,2.891,-177.834
2025-09-03 22:29:49.178072,-0.051,0.015,0.999,-0.122,0.0,-0.122,17.004,5.915,-46.267,0.788,2.891,-177.837
2025-09-03 22:29:49.198445,-0.051,0.015,0.999,-0.061,0.0,-0.122,16.965,5.85,-46.254,0.788,2.89,-177.841
2025-09-03 22:29:49.218733,-0.051,0.015,0.999,0.0,0.0,-0.122,17.017,5.837,-46.241,0.788,2.89,-177.845
2025-09-03 22:29:49.239484,-0.051,0.015,0.999,0.0,0.0,-0.122,17.017,5.85,-46.254,0.789,2.891,-177.848
2025-09-03 22:29:49.259732,-0.051,0.015,0.999,-0.122,0.0,-0.122,16.991,5.85,-46.267,0.789,2.891,-177.851
2025-09-03 22:29:49.280354,-0.051,0.015,0.999,-0.183,0.0,0.0,16.978,5.837,-46.241,0.787,2.891,-177.855
2025-09-03 22:29:49.300604,-0.051,0.015,0.999,-0.061,0.0,-0.122,16.991,5.876,-46.254,0.785,2.891,-177.859
2025-09-03 22:29:49.320974,-0.051,0.015,0.999,0.0,0.0,-0.122,16.965,5.889,-46.241,0.785,2.891,-177.862
2025-09-03 22:29:49.341475,-0.051,0.015,0.999,-0.061,0.0,-0.122,17.004,5.85,-46.241,0.786,2.891,-177.866
2025-09-03 22:29:49.361972,-0.051,0.015,0.999,-0.061,0.0,-0.122,16.991,5.837,-46.267,0.785,2.891,-177.869
2025-09-03 22:29:49.382469,-0.051,0.015,0.999,0.0,0.0,-0.122,16.991,5.837,-46.267,0.785,2.891,-177.873
2025-09-03 22:29:49.402595,-0.051,0.015,0.999,0.0,0.0,-0.122,17.017,5.863,-46.241,0.786,2.891,-177.876
2025-09-03 22:29:49.423092,-0.051,0.015,0.999,-0.122,0.0,-0.122,16.991,5.954,-46.254,0.786,2.892,-177.879
2025-09-03 22:29:49.443536,-0.051,0.015,0.999,-0.122,0.0,-0.122,16.978,5.902,-46.254,0.784,2.892,-177.882
2025-09-03 22:29:49.463551,-0.051,0.015,0.999,-0.061,0.0,-0.122,16.965,5.863,-46.254,0.783,2.891,-177.886
2025-09-03 22:29:49.484049,-0.051,0.015,0.999,-0.061,0.0,-0.122,16.978,5.85,-46.254,0.782,2.891,-177.889
2025-09-03 22:29:49.504501,-0.051,0.015,1.0,-0.122,0.0,-0.122,17.004,5.824,-46.241,0.782,2.892,-177.893
2025-09-03 22:29:49.524921,-0.051,0.015,1.0,-0.122,0.0,-0.122,17.004,5.837,-46.254,0.781,2.892,-177.896
2025-09-03 22:29:49.545418,-0.051,0.015,1.0,-0.061,0.0,-0.122,16.991,5.876,-46.267,0.78,2.891,-177.9
2025-09-03 22:29:49.565906,-0.051,0.015,1.0,0.0,0.0,-0.122,16.991,5.902,-46.267,0.78,2.891,-177.903
2025-09-03 22:29:49.586280,-0.051,0.015,1.0,0.0,0.0,0.0,17.004,5.915,-46.254,0.782,2.892,-177.906
2025-09-03 22:29:49.606532,-0.051,0.015,1.0,-0.122,0.0,-0.122,16.978,5.85,-46.28,0.781,2.892,-177.909
2025-09-03 22:29:49.626902,-0.051,0.015,1.0,-0.183,0.0,-0.122,16.978,5.824,-46.241,0.779,2.892,-177.913
2025-09-03 22:29:49.647399,-0.05,0.015,0.999,-0.061,0.0,-0.122,16.991,5.837,-46.254,0.778,2.891,-177.917
2025-09-03 22:29:49.667606,-0.051,0.015,0.999,0.0,0.0,-0.122,16.952,5.85,-46.267,0.778,2.892,-177.92
2025-09-03 22:29:49.688145,-0.05,0.015,0.999,0.0,0.0,0.0,17.004,5.863,-46.267,0.779,2.892,-177.924
2025-09-03 22:29:49.708646,-0.051,0.015,0.999,0.0,0.0,-0.122,17.004,5.902,-46.267,0.781,2.892,-177.927
2025-09-03 22:29:49.729018,-0.051,0.015,0.999,0.0,0.0,-0.122,16.991,5.902,-46.254,0.782,2.892,-177.931
2025-09-03 22:29:49.749391,-0.051,0.015,0.999,0.0,0.0,-0.122,16.978,5.876,-46.215,0.784,2.893,-177.934
2025-09-03 22:29:49.769765,-0.051,0.015,0.999,0.0,0.0,-0.122,16.991,5.876,-46.241,0.785,2.893,-177.937
2025-09-03 22:29:49.790388,-0.051,0.015,0.999,0.0,0.0,-0.122,17.004,5.863,-46.267,0.787,2.893,-177.941
2025-09-03 22:29:49.810636,-0.051,0.015,0.999,0.0,0.0,-0.122,17.03,5.837,-46.254,0.788,2.893,-177.944
2025-09-03 22:29:49.831137,-0.051,0.015,0.999,0.0,0.0,0.0,17.043,5.85,-46.28,0.789,2.893,-177.947
2025-09-03 22:29:49.851516,-0.051,0.015,0.999,0.0,0.0,-0.122,17.017,5.876,-46.293,0.79,2.893,-177.951
2025-09-03 22:29:49.872013,-0.051,0.015,0.999,0.0,0.0,-0.122,17.03,5.863,-46.241,0.792,2.893,-177.954
2025-09-03 22:29:49.892382,-0.051,0.015,0.999,0.0,0.0,-0.122,17.017,5.863,-46.267,0.793,2.894,-177.958
2025-09-03 22:29:49.912878,-0.051,0.015,0.999,0.0,0.0,-0.122,16.991,5.837,-46.267,0.794,2.894,-177.961
2025-09-03 22:29:49.933379,-0.051,0.015,0.999,0.0,0.0,-0.122,17.004,5.837,-46.254,0.795,2.894,-177.965
2025-09-03 22:29:49.953750,-0.051,0.015,0.999,0.0,0.0,-0.122,17.043,5.863,-46.267,0.797,2.894,-177.968
2025-09-03 22:29:49.974373,-0.051,0.015,0.999,0.0,0.0,-0.122,17.03,5.863,-46.267,0.798,2.894,-177.972
2025-09-03 22:29:49.994498,-0.051,0.015,0.999,0.0,0.0,-0.122,17.043,5.85,-46.267,0.799,2.894,-177.975
2025-09-03 22:29:50.015122,-0.051,0.015,0.999,0.0,0.0,-0.122,17.017,5.863,-46.254,0.8,2.894,-177.978
2025-09-03 22:29:50.035368,-0.051,0.015,0.999,0.0,0.0,-0.122,16.991,5.85,-46.267,0.801,2.894,-177.982
2025-09-03 22:29:50.055871,-0.051,0.015,0.999,0.0,0.0,-0.122,17.03,5.837,-46.267,0.802,2.894,-177.985
2025-09-03 22:29:50.076367,-0.051,0.015,0.999,0.0,0.0,-0.122,17.082,5.811,-46.254,0.803,2.894,-177.989
2025-09-03 22:29:50.096739,-0.051,0.015,0.999,0.0,0.0,-0.122,17.03,5.837,-46.28,0.804,2.895,-177.992
2025-09-03 22:29:50.117363,-0.051,0.015,0.999,0.0,0.0,-0.122,16.991,5.824,-46.267,0.805,2.895,-177.996
2025-09-03 22:29:50.137612,-0.051,0.015,0.999,0.0,0.0,-0.122,17.017,5.876,-46.254,0.806,2.895,-177.999
2025-09-03 22:29:50.157938,-0.051,0.015,1.0,0.0,0.0,-0.122,17.03,5.941,-46.267,0.807,2.895,-178.002
2025-09-03 22:29:50.178484,-0.051,0.015,1.0,0.0,0.0,-0.183,17.004,5.876,-46.254,0.808,2.895,-178.006
2025-09-03 22:29:50.198980,-0.051,0.015,1.0,0.0,0.0,-0.122,17.03,5.837,-46.267,0.809,2.895,-178.009
2025-09-03 22:29:50.219354,-0.051,0.015,1.0,0.0,0.0,-0.122,17.056,5.837,-46.267,0.81,2.895,-178.013
2025-09-03 22:29:50.239853,-0.051,0.015,1.0,0.0,0.0,-0.122,17.03,5.811,-46.267,0.811,2.895,-178.016
2025-09-03 22:29:50.260351,-0.051,0.015,1.0,0.0,0.0,-0.122,17.017,5.824,-46.228,0.812,2.895,-178.02
2025-09-03 22:29:50.280724,-0.051,0.015,0.999,0.0,0.0,-0.122,16.991,5.889,-46.254,0.813,2.895,-178.023
2025-09-03 22:29:50.301097,-0.051,0.015,0.999,0.0,0.0,-0.122,16.952,5.876,-46.267,0.814,2.895,-178.027
2025-09-03 22:29:50.321471,-0.051,0.015,0.999,0.0,0.0,-0.122,16.965,5.863,-46.254,0.815,2.896,-178.03
2025-09-03 22:29:50.341845,-0.05,0.015,0.999,0.0,0.0,-0.122,16.991,5.837,-46.28,0.815,2.896,-178.034
2025-09-03 22:29:50.362351,-0.05,0.015,0.999,0.0,0.0,-0.122,17.017,5.837,-46.267,0.816,2.896,-178.037
2025-09-03 22:29:50.382719,-0.05,0.015,0.999,0.0,0.0,-0.122,17.043,5.85,-46.241,0.817,2.896,-178.041
2025-09-03 22:29:50.403341,-0.05,0.015,0.999,0.0,0.0,-0.122,17.043,5.928,-46.254,0.818,2.896,-178.044
2025-09-03 22:29:50.423714,-0.05,0.015,0.999,0.0,0.0,-0.122,16.991,5.889,-46.254,0.818,2.896,-178.048
2025-09-03 22:29:50.444087,-0.051,0.015,0.999,0.0,0.0,-0.122,17.004,5.876,-46.267,0.819,2.896,-178.051
2025-09-03 22:29:50.464542,-0.05,0.015,0.999,0.0,0.0,-0.122,17.03,5.863,-46.267,0.82,2.896,-178.055
2025-09-03 22:29:50.484926,-0.05,0.015,0.999,0.0,0.0,-0.122,17.043,5.837,-46.267,0.82,2.896,-178.058
2025-09-03 22:29:50.505340,-0.05,0.015,0.999,0.0,0.0,-0.122,17.056,5.798,-46.202,0.821,2.896,-178.062
2025-09-03 22:29:50.525667,-0.05,0.015,0.999,0.0,0.0,-0.122,17.03,5.863,-46.254,0.822,2.896,-178.065
2025-09-03 22:29:50.546087,-0.051,0.015,0.999,0.0,0.0,-0.122,17.017,5.915,-46.254,0.822,2.896,-178.068
2025-09-03 22:29:50.566535,-0.05,0.015,0.999,0.0,0.0,-0.122,17.03,5.902,-46.254,0.823,2.896,-178.072
2025-09-03 22:29:50.587077,-0.05,0.015,0.999,0.0,0.0,-0.122,17.017,5.889,-46.293,0.824,2.896,-178.075
2025-09-03 22:29:50.607450,-0.05,0.015,0.999,0.0,0.0,-0.122,16.965,5.863,-46.28,0.824,2.896,-178.079
2025-09-03 22:29:50.627948,-0.05,0.015,0.999,0.0,0.0,-0.122,16.991,5.85,-46.228,0.825,2.896,-178.082
2025-09-03 22:29:50.648320,-0.051,0.015,0.999,0.0,0.0,-0.122,17.004,5.837,-46.241,0.825,2.896,-178.086
2025-09-03 22:29:50.668778,-0.051,0.015,0.999,0.0,0.0,-0.122,17.017,5.85,-46.267,0.826,2.896,-178.089
2025-09-03 22:29:50.689316,-0.051,0.015,0.999,0.305,0.0,-0.122,17.017,5.863,-46.267,0.83,2.896,-178.092
2025-09-03 22:29:50.709691,-0.051,0.015,0.999,0.244,0.061,-0.122,17.069,5.928,-46.267,0.837,2.898,-178.095
2025-09-03 22:29:50.730313,-0.051,0.015,0.999,0.0,0.0,-0.122,17.017,5.889,-46.28,0.84,2.899,-178.098
2025-09-03 22:29:50.750563,-0.051,0.015,0.999,0.0,-0.061,-0.183,16.991,5.824,-46.267,0.839,2.898,-178.102
2025-09-03 22:29:50.771061,-0.051,0.015,0.999,0.122,0.0,-0.122,16.991,5.824,-46.267,0.841,2.897,-178.105
2025-09-03 22:29:50.791388,-0.05,0.015,0.999,0.122,0.061,-0.122,17.004,5.837,-46.267,0.845,2.898,-178.109
2025-09-03 22:29:50.811810,-0.05,0.015,0.999,0.0,0.0,-0.122,17.03,5.85,-46.254,0.847,2.9,-178.111
2025-09-03 22:29:50.832432,-0.051,0.015,0.999,-0.061,-0.061,-0.122,17.03,5.85,-46.28,0.845,2.899,-178.115
2025-09-03 22:29:50.852679,-0.05,0.015,0.999,0.0,0.0,-0.122,16.978,5.863,-46.293,0.844,2.897,-178.118
2025-09-03 22:29:50.873312,-0.05,0.015,0.999,0.122,0.061,-0.122,16.978,5.837,-46.267,0.847,2.897,-178.122
2025-09-03 22:29:50.893636,-0.05,0.015,0.999,0.061,0.0,-0.122,16.991,5.837,-46.254,0.849,2.899,-178.124
2025-09-03 22:29:50.913926,-0.051,0.015,1.0,0.0,-0.061,-0.122,16.978,5.876,-46.267,0.851,2.899,-178.128
2025-09-03 22:29:50.934424,-0.051,0.015,1.0,0.061,0.0,-0.122,16.978,5.837,-46.254,0.853,2.897,-178.131
2025-09-03 22:29:50.954926,-0.051,0.015,1.0,0.122,0.061,-0.122,16.991,5.85,-46.267,0.856,2.898,-178.134
2025-09-03 22:29:50.975251,-0.051,0.015,1.0,0.122,0.0,-0.122,16.991,5.863,-46.293,0.86,2.9,-178.137
2025-09-03 22:29:50.995794,-0.051,0.015,1.0,0.0,-0.061,-0.183,16.991,5.785,-46.28,0.861,2.899,-178.141
2025-09-03 22:29:51.016292,-0.051,0.015,1.0,-0.122,0.0,-0.122,16.991,5.811,-46.241,0.859,2.898,-178.145
2025-09-03 22:29:51.036691,-0.051,0.015,0.999,0.0,0.0,-0.122,17.004,5.85,-46.28,0.858,2.898,-178.148
2025-09-03 22:29:51.057056,-0.051,0.015,0.999,0.122,0.0,-0.122,17.004,5.824,-46.267,0.861,2.899,-178.151
2025-09-03 22:29:51.077550,-0.051,0.015,0.999,0.0,0.0,-0.122,16.991,5.798,-46.254,0.864,2.899,-178.155
2025-09-03 22:29:51.097922,-0.051,0.015,0.999,-0.122,0.0,-0.122,17.017,5.837,-46.293,0.863,2.899,-178.158
2025-09-03 22:29:51.118422,-0.051,0.015,0.999,0.0,0.0,-0.122,16.991,5.837,-46.28,0.861,2.898,-178.162
2025-09-03 22:29:51.138671,-0.051,0.015,0.999,0.122,0.0,-0.122,17.004,5.85,-46.267,0.862,2.898,-178.165
2025-09-03 22:29:51.159295,-0.051,0.015,0.999,0.122,0.0,-0.122,16.991,5.915,-46.267,0.865,2.899,-178.168
2025-09-03 22:29:51.179541,-0.051,0.015,0.999,0.061,0.0,-0.122,16.952,5.837,-46.267,0.868,2.9,-178.172
2025-09-03 22:29:51.200288,-0.051,0.015,0.999,0.0,0.0,0.0,17.017,5.811,-46.267,0.869,2.899,-178.175
2025-09-03 22:29:51.220646,-0.051,0.015,0.999,0.0,0.0,-0.122,17.017,5.837,-46.267,0.869,2.899,-178.179
2025-09-03 22:29:51.241018,-0.051,0.015,0.999,0.0,0.0,-0.122,17.004,5.837,-46.28,0.869,2.9,-178.182
2025-09-03 22:29:51.261514,-0.051,0.015,0.999,0.0,0.0,-0.122,16.991,5.785,-46.267,0.87,2.9,-178.185
2025-09-03 22:29:51.281892,-0.051,0.015,0.999,0.0,0.0,-0.122,16.978,5.85,-46.267,0.871,2.9,-178.189
2025-09-03 22:29:51.302385,-0.051,0.015,0.999,0.0,0.0,-0.122,16.965,5.876,-46.293,0.872,2.9,-178.192
2025-09-03 22:29:51.323013,-0.051,0.015,0.999,0.0,0.0,-0.122,16.978,5.824,-46.28,0.871,2.9,-178.196
2025-09-03 22:29:51.343387,-0.051,0.015,0.999,0.061,0.0,-0.122,17.004,5.824,-46.267,0.872,2.9,-178.2
2025-09-03 22:29:51.363755,-0.051,0.015,0.999,0.061,0.0,-0.122,17.017,5.811,-46.293,0.874,2.9,-178.203
2025-09-03 22:29:51.384386,-0.051,0.015,0.999,0.0,0.0,0.0,16.978,5.811,-46.28,0.876,2.901,-178.206
2025-09-03 22:29:51.404634,-0.051,0.015,0.999,0.0,0.0,-0.122,17.03,5.863,-46.267,0.876,2.901,-178.209
2025-09-03 22:29:51.425004,-0.051,0.015,0.999,0.0,0.0,-0.122,17.017,5.915,-46.267,0.877,2.901,-178.213
2025-09-03 22:29:51.445505,-0.051,0.015,0.999,0.061,0.0,-0.122,16.991,5.863,-46.267,0.879,2.901,-178.216
2025-09-03 22:29:51.465875,-0.051,0.015,0.999,0.061,0.0,-0.122,17.043,5.863,-46.28,0.881,2.902,-178.219
2025-09-03 22:29:51.486125,-0.051,0.015,0.999,0.0,0.0,0.0,17.03,5.837,-46.293,0.881,2.902,-178.222
2025-09-03 22:29:51.506628,-0.051,0.015,0.999,0.0,0.0,-0.122,17.004,5.811,-46.267,0.881,2.902,-178.226
2025-09-03 22:29:51.526868,-0.051,0.015,0.999,0.0,0.0,-0.122,16.991,5.85,-46.254,0.882,2.902,-178.229
2025-09-03 22:29:51.547367,-0.051,0.015,0.999,0.0,0.0,-0.122,16.978,5.876,-46.293,0.883,2.903,-178.233
2025-09-03 22:29:51.567745,-0.051,0.015,0.999,-0.061,0.0,-0.122,16.991,5.863,-46.267,0.883,2.903,-178.236
2025-09-03 22:29:51.588369,-0.051,0.015,0.999,0.0,0.0,-0.122,17.069,5.863,-46.28,0.882,2.902,-178.24
2025-09-03 22:29:51.608859,-0.051,0.015,0.999,0.0,0.0,-0.122,17.03,5.824,-46.28,0.882,2.902,-178.243
2025-09-03 22:29:51.629365,-0.051,0.015,0.999,-0.916,0.061,0.0,17.017,5.837,-46.28,0.873,2.902,-178.247
2025-09-03 22:29:51.649614,-0.051,0.015,0.999,-0.488,-0.061,-0.122,17.056,5.837,-46.254,0.854,2.903,-178.251
2025-09-03 22:29:51.669987,-0.051,0.016,1.0,0.305,-0.305,-0.183,16.991,5.915,-46.267,0.855,2.898,-178.255
2025-09-03 22:29:51.690354,-0.051,0.016,1.0,0.977,-0.122,-0.122,16.965,5.863,-46.28,0.873,2.892,-178.258
2025-09-03 22:29:51.710692,-0.051,0.015,1.0,-0.488,0.183,-0.122,17.03,5.889,-46.267,0.879,2.893,-178.261
2025-09-03 22:29:51.731106,-0.051,0.015,1.0,-0.977,0.122,-0.183,17.03,5.876,-46.254,0.861,2.898,-178.264
2025-09-03 22:29:51.751479,-0.051,0.016,1.0,0.061,-0.122,-0.183,17.03,5.811,-46.267,0.852,2.897,-178.269
2025-09-03 22:29:51.771852,-0.051,0.016,1.0,0.671,-0.061,-0.122,17.004,5.837,-46.267,0.863,2.895,-178.272
2025-09-03 22:29:51.792355,-0.05,0.015,0.999,-0.061,0.122,-0.122,16.952,5.837,-46.28,0.87,2.896,-178.275
2025-09-03 22:29:51.812722,-0.05,0.015,0.999,-0.671,0.0,-0.183,16.978,5.85,-46.267,0.861,2.898,-178.279
2025-09-03 22:29:51.833348,-0.05,0.015,0.999,-0.061,-0.122,0.0,17.03,5.876,-46.293,0.851,2.896,-178.283
2025-09-03 22:29:51.853473,-0.05,0.015,0.999,0.427,-0.061,-0.122,16.978,5.876,-46.306,0.857,2.892,-178.286
2025-09-03 22:29:51.873845,-0.05,0.015,0.999,0.061,0.061,-0.122,16.991,5.863,-46.254,0.863,2.893,-178.289
2025-09-03 22:29:51.894348,-0.05,0.015,0.999,-0.488,0.0,-0.183,17.017,5.85,-46.254,0.858,2.895,-178.293
2025-09-03 22:29:51.914847,-0.05,0.015,0.999,-0.122,-0.061,-0.183,16.965,5.85,-46.254,0.85,2.894,-178.297
2025-09-03 22:29:51.935339,-0.05,0.015,0.999,0.305,0.0,0.0,16.991,5.837,-46.254,0.853,2.892,-178.301
2025-09-03 22:29:51.955460,-0.05,0.015,0.999,0.122,0.122,-0.122,17.043,5.876,-46.254,0.858,2.894,-178.304
2025-09-03 22:29:51.975892,-0.05,0.015,0.999,-0.244,0.061,-0.122,17.004,5.824,-46.254,0.856,2.896,-178.307
2025-09-03 22:29:51.996269,-0.05,0.015,0.999,-0.183,-0.061,0.0,16.991,5.85,-46.228,0.85,2.896,-178.311
2025-09-03 22:29:52.016594,-0.05,0.015,0.999,0.122,0.0,-0.122,16.978,5.876,-46.28,0.85,2.894,-178.315
2025-09-03 22:29:52.037261,-0.05,0.015,0.999,0.061,0.122,0.0,16.978,5.85,-46.267,0.854,2.895,-178.318
2025-09-03 22:29:52.057514,-0.05,0.015,0.999,-0.122,0.061,-0.122,17.017,5.824,-46.254,0.854,2.898,-178.321
2025-09-03 22:29:52.077888,-0.05,0.015,0.999,-0.122,-0.122,-0.183,17.004,5.85,-46.28,0.85,2.896,-178.325
2025-09-03 22:29:52.098218,-0.05,0.015,0.999,0.061,-0.061,-0.122,17.004,5.85,-46.28,0.85,2.894,-178.329
2025-09-03 22:29:52.118634,-0.05,0.015,0.999,0.0,0.122,-0.122,16.978,5.863,-46.267,0.852,2.894,-178.332
2025-09-03 22:29:52.139255,-0.05,0.015,0.999,-0.061,0.0,0.0,16.978,5.928,-46.254,0.851,2.897,-178.335
2025-09-03 22:29:52.159755,-0.05,0.015,0.999,-0.061,-0.061,-0.183,16.991,5.889,-46.267,0.85,2.896,-178.339
2025-09-03 22:29:52.180257,-0.05,0.015,0.999,0.0,0.0,-0.122,16.991,5.85,-46.254,0.849,2.894,-178.343
2025-09-03 22:29:52.200380,-0.05,0.015,0.999,0.0,0.061,-0.122,16.991,5.863,-46.254,0.85,2.894,-178.347
2025-09-03 22:29:52.220752,-0.05,0.015,0.999,-0.061,0.0,-0.122,16.978,5.798,-46.254,0.849,2.896,-178.35
2025-09-03 22:29:52.241246,-0.05,0.015,0.999,0.0,-0.061,0.0,16.991,5.837,-46.241,0.848,2.895,-178.353
2025-09-03 22:29:52.261815,-0.05,0.015,0.999,0.0,0.0,-0.122,16.978,5.889,-46.267,0.849,2.893,-178.357
2025-09-03 22:29:52.282313,-0.05,0.015,0.999,0.0,0.061,-0.122,16.952,5.902,-46.28,0.849,2.895,-178.36
2025-09-03 22:29:52.302563,-0.05,0.015,1.0,0.0,0.0,-0.122,16.978,5.876,-46.254,0.848,2.896,-178.363
2025-09-03 22:29:52.323060,-0.05,0.015,1.0,0.0,-0.061,-0.183,16.965,5.863,-46.293,0.848,2.895,-178.366
2025-09-03 22:29:52.343307,-0.05,0.015,1.0,0.061,0.0,-0.122,16.978,5.837,-46.267,0.849,2.894,-178.37
2025-09-03 22:29:52.363681,-0.05,0.015,1.0,0.0,0.061,-0.122,16.991,5.85,-46.254,0.85,2.895,-178.373
2025-09-03 22:29:52.384316,-0.05,0.015,1.0,-0.061,0.0,-0.122,17.004,5.941,-46.267,0.848,2.896,-178.377
2025-09-03 22:29:52.404324,-0.05,0.015,1.0,0.0,-0.061,-0.183,16.926,5.915,-46.254,0.848,2.894,-178.381
2025-09-03 22:29:52.424819,-0.05,0.015,0.999,0.061,0.0,-0.122,16.991,5.915,-46.267,0.849,2.893,-178.384
2025-09-03 22:29:52.445190,-0.05,0.015,0.999,0.0,0.061,-0.122,16.991,5.902,-46.28,0.85,2.895,-178.387
2025-09-03 22:29:52.465690,-0.05,0.015,0.999,-0.061,0.0,-0.122,16.965,5.837,-46.267,0.849,2.896,-178.391
2025-09-03 22:29:52.486188,-0.05,0.015,0.999,0.0,-0.061,-0.183,17.004,5.837,-46.254,0.848,2.894,-178.394
2025-09-03 22:29:52.506561,-0.05,0.015,0.999,0.061,0.0,-0.122,17.017,5.85,-46.241,0.849,2.893,-178.398
2025-09-03 22:29:52.527138,-0.05,0.015,0.999,0.0,0.061,-0.122,16.978,5.915,-46.241,0.85,2.895,-178.401
2025-09-03 22:29:52.547308,-0.05,0.015,0.999,-0.061,0.0,-0.183,16.978,5.928,-46.254,0.849,2.896,-178.405
2025-09-03 22:29:52.567932,-0.05,0.015,0.999,0.0,-0.061,-0.183,16.978,5.902,-46.254,0.849,2.894,-178.409
2025-09-03 22:29:52.588180,-0.05,0.015,0.999,0.061,0.0,-0.122,16.978,5.889,-46.254,0.85,2.893,-178.413
2025-09-03 22:29:52.608718,-0.05,0.015,0.999,0.0,0.061,-0.122,16.965,5.863,-46.293,0.851,2.895,-178.416
2025-09-03 22:29:52.629217,-0.05,0.015,0.999,-0.061,0.0,-0.122,16.952,5.915,-46.267,0.85,2.895,-178.419
2025-09-03 22:29:52.649345,-0.05,0.015,0.999,0.0,-0.061,-0.183,16.952,5.863,-46.254,0.849,2.894,-178.423
2025-09-03 22:29:52.669837,-0.05,0.015,0.999,0.061,0.0,-0.122,17.004,5.915,-46.267,0.85,2.893,-178.426
2025-09-03 22:29:52.690213,-0.05,0.015,0.999,0.0,0.061,-0.122,16.978,5.902,-46.267,0.851,2.895,-178.429
2025-09-03 22:29:52.710715,-0.05,0.015,0.999,-0.061,0.0,-0.183,16.991,5.876,-46.254,0.85,2.896,-178.433
2025-09-03 22:29:52.731213,-0.05,0.015,0.999,0.0,-0.061,-0.183,16.978,5.876,-46.241,0.849,2.894,-178.436
2025-09-03 22:29:52.751456,-0.05,0.015,0.999,0.061,0.0,-0.122,16.991,5.863,-46.254,0.85,2.893,-178.44
2025-09-03 22:29:52.772206,-0.05,0.015,0.999,0.0,0.061,-0.122,16.978,5.876,-46.241,0.851,2.894,-178.443
2025-09-03 22:29:52.792453,-0.05,0.015,0.999,-0.061,0.0,-0.122,16.991,5.863,-46.241,0.85,2.895,-178.446
2025-09-03 22:29:52.812953,-0.05,0.015,1.0,0.0,-0.061,-0.183,16.991,5.876,-46.28,0.849,2.894,-178.45
2025-09-03 22:29:52.833454,-0.05,0.015,1.0,0.061,0.0,-0.122,16.978,5.889,-46.254,0.849,2.893,-178.454
2025-09-03 22:29:52.853825,-0.05,0.015,1.0,0.0,0.061,-0.122,17.004,5.889,-46.241,0.851,2.894,-178.457
2025-09-03 22:29:52.874322,-0.05,0.015,1.0,0.0,0.0,-0.122,16.978,5.876,-46.254,0.85,2.895,-178.46
2025-09-03 22:29:52.894696,-0.05,0.015,1.0,0.0,-0.061,-0.183,16.965,5.85,-46.254,0.849,2.894,-178.464
2025-09-03 22:29:52.915268,-0.05,0.015,1.0,0.0,0.0,-0.122,16.991,5.85,-46.254,0.849,2.893,-178.467
2025-09-03 22:29:52.935514,-0.05,0.015,0.999,0.0,0.061,-0.122,17.017,5.902,-46.254,0.851,2.894,-178.47
2025-09-03 22:29:52.955890,-0.05,0.015,0.999,-0.061,0.0,-0.122,16.991,5.837,-46.254,0.85,2.895,-178.473
2025-09-03 22:29:52.976387,-0.05,0.015,0.999,-0.061,-0.061,-0.183,16.991,5.85,-46.228,0.848,2.894,-178.477
2025-09-03 22:29:52.996885,-0.05,0.015,0.999,0.0,0.0,-0.122,16.965,5.876,-46.254,0.847,2.892,-178.481
2025-09-03 22:29:53.017257,-0.05,0.015,0.999,0.122,0.061,0.0,16.965,5.889,-46.28,0.849,2.893,-178.484
2025-09-03 22:29:53.037752,-0.05,0.015,0.999,0.0,0.0,-0.122,16.991,5.837,-46.254,0.851,2.894,-178.487
2025-09-03 22:29:53.058265,-0.05,0.015,1.0,-0.061,-0.061,-0.122,17.017,5.824,-46.267,0.85,2.894,-178.49
2025-09-03 22:29:53.078636,-0.05,0.015,1.0,0.0,0.0,-0.122,16.991,5.824,-46.28,0.848,2.892,-178.494
2025-09-03 22:29:53.098875,-0.05,0.015,1.0,0.061,0.061,-0.122,17.004,5.837,-46.254,0.848,2.892,-178.497
2025-09-03 22:29:53.119377,-0.05,0.015,1.0,0.0,0.0,-0.122,17.03,5.876,-46.254,0.85,2.894,-178.501
2025-09-03 22:29:53.139748,-0.05,0.015,1.0,0.0,0.0,-0.122,16.978,5.863,-46.254,0.849,2.894,-178.504
2025-09-03 22:29:53.160371,-0.05,0.015,1.0,0.0,0.0,0.0,17.004,5.85,-46.254,0.848,2.893,-178.508
2025-09-03 22:29:53.180869,-0.05,0.015,1.0,0.0,0.0,-0.122,17.004,5.863,-46.254,0.848,2.893,-178.512
2025-09-03 22:29:53.201201,-0.05,0.015,0.999,0.0,0.0,0.0,16.978,5.837,-46.254,0.849,2.894,-178.515
2025-09-03 22:29:53.221741,-0.05,0.015,0.999,0.0,0.0,-0.122,16.978,5.811,-46.254,0.849,2.894,-178.518
2025-09-03 22:29:53.242239,-0.05,0.015,0.999,-0.061,-0.061,-0.183,16.991,5.863,-46.254,0.848,2.893,-178.522
2025-09-03 22:29:53.262611,-0.05,0.015,0.999,0.0,0.0,-0.122,17.017,5.876,-46.267,0.847,2.892,-178.526
2025-09-03 22:29:53.282855,-0.05,0.015,0.999,0.061,0.0,-0.122,16.991,5.863,-46.241,0.848,2.893,-178.529
2025-09-03 22:29:53.303360,-0.05,0.015,0.999,0.0,0.0,0.0,17.043,5.863,-46.254,0.849,2.894,-178.532
2025-09-03 22:29:53.323663,-0.05,0.015,1.0,0.0,0.0,-0.122,17.004,5.837,-46.28,0.848,2.893,-178.536
2025-09-03 22:29:53.344160,-0.05,0.015,1.0,0.0,0.0,-0.122,16.978,5.811,-46.241,0.847,2.892,-178.539
2025-09-03 22:29:53.364408,-0.05,0.015,1.0,0.0,0.0,-0.122,16.991,5.85,-46.215,0.848,2.893,-178.542
2025-09-03 22:29:53.384909,-0.05,0.015,1.0,0.0,0.0,-0.122,16.913,5.889,-46.254,0.849,2.893,-178.545
2025-09-03 22:29:53.405281,-0.05,0.015,1.0,0.0,0.0,-0.122,16.952,5.889,-46.267,0.849,2.893,-178.549
2025-09-03 22:29:53.425782,-0.05,0.015,1.0,0.0,0.0,-0.122,16.978,5.889,-46.254,0.848,2.893,-178.553
2025-09-03 22:29:53.446225,-0.05,0.015,0.999,0.0,0.0,-0.122,16.952,5.889,-46.254,0.848,2.893,-178.556
2025-09-03 22:29:53.468239,-0.05,0.015,0.999,0.0,0.0,-0.122,16.965,5.785,-46.254,0.848,2.893,-178.56
2025-09-03 22:29:53.490485,-0.05,0.015,0.999,0.0,0.0,-0.122,16.978,5.876,-46.254,0.848,2.892,-178.564
2025-09-03 22:29:53.532358,-0.05,0.015,0.999,0.0,0.0,-0.122,16.978,5.889,-46.254,0.848,2.892,-178.571
2025-09-03 22:29:53.638727,-0.05,0.015,0.999,0.0,0.0,-0.122,16.978,5.837,-46.254,0.85,2.892,-178.589
2025-09-03 22:29:53.695720,-0.05,0.015,0.999,0.0,0.0,-0.122,16.991,5.902,-46.267,0.849,2.892,-178.6
2025-09-03 22:29:53.718093,-0.05,0.015,0.999,0.0,0.0,-0.122,17.03,5.876,-46.254,0.849,2.891,-178.603
2025-09-03 22:29:53.799043,-0.05,0.015,0.999,0.0,0.0,-0.122,16.991,5.876,-46.254,0.847,2.891,-178.617
2025-09-03 22:29:53.819210,-0.05,0.015,1.0,0.0,0.0,-0.122,16.991,5.876,-46.254,0.846,2.891,-178.621
2025-09-03 22:29:53.859083,-0.05,0.015,1.0,0.0,0.0,-0.122,16.991,5.876,-46.241,0.848,2.891,-178.628
2025-09-03 22:29:53.879205,-0.05,0.015,1.0,0.0,0.0,-0.122,16.991,5.876,-46.241,0.848,2.891,-178.631
2025-09-03 22:29:53.919077,-0.05,0.015,1.0,0.0,0.0,-0.122,16.978,5.837,-46.241,0.848,2.891,-178.637
2025-09-03 22:29:53.939206,-0.05,0.015,1.0,0.0,0.0,-0.122,17.004,5.837,-46.241,0.848,2.891,-178.641
2025-09-03 22:29:53.965738,-0.05,0.015,0.999,0.0,0.0,-0.122,16.978,5.902,-46.267,0.848,2.891,-178.645
2025-09-03 22:29:53.989110,-0.05,0.015,0.999,0.0,0.0,-0.122,17.017,5.915,-46.254,0.848,2.891,-178.649
2025-09-03 22:29:54.009240,-0.05,0.015,0.999,0.0,0.0,-0.122,16.991,5.863,-46.241,0.848,2.891,-178.653
2025-09-03 22:29:54.052481,-0.05,0.015,0.999,0.0,0.0,-0.122,16.978,5.863,-46.228,0.848,2.891,-178.66
2025-09-03 22:29:54.072478,-0.05,0.015,0.999,0.0,0.0,-0.122,16.991,5.85,-46.241,0.848,2.891,-178.664
2025-09-03 22:29:54.129101,-0.05,0.015,0.999,0.0,0.0,-0.122,16.978,5.902,-46.241,0.848,2.891,-178.673
2025-09-03 22:29:54.172721,-0.05,0.015,0.999,0.0,0.0,-0.122,16.965,5.863,-46.254,0.847,2.891,-178.68
2025-09-03 22:29:54.193220,-0.05,0.015,0.999,0.0,0.0,-0.122,16.965,5.863,-46.306,0.847,2.891,-178.684
2025-09-03 22:29:54.213724,-0.05,0.015,0.999,0.0,0.0,-0.122,16.978,5.863,-46.28,0.847,2.891,-178.687
2025-09-03 22:29:54.234095,-0.05,0.015,0.999,0.0,0.0,-0.122,17.03,5.876,-46.267,0.847,2.891,-178.691
2025-09-03 22:29:54.254589,-0.05,0.015,0.999,0.0,0.0,-0.122,17.004,5.889,-46.267,0.847,2.891,-178.694
2025-09-03 22:29:54.275092,-0.05,0.015,0.999,0.0,0.0,-0.122,16.965,5.889,-46.267,0.847,2.891,-178.698
2025-09-03 22:29:54.295337,-0.05,0.015,0.999,0.0,0.0,-0.122,16.991,5.863,-46.241,0.847,2.891,-178.701
2025-09-03 22:29:54.315710,-0.05,0.015,0.999,0.0,0.0,-0.122,16.965,5.85,-46.254,0.846,2.891,-178.705
2025-09-03 22:29:54.336209,-0.05,0.015,0.999,0.0,0.0,-0.122,16.952,5.85,-46.254,0.846,2.891,-178.708
2025-09-03 22:29:54.356582,-0.05,0.015,0.999,0.0,0.0,-0.122,16.952,5.876,-46.267,0.846,2.891,-178.711
2025-09-03 22:29:54.377084,-0.05,0.015,0.999,0.0,0.0,-0.122,16.978,5.889,-46.267,0.846,2.891,-178.715
2025-09-03 22:29:54.397703,-0.05,0.015,0.999,0.0,0.0,-0.122,16.965,5.85,-46.254,0.846,2.891,-178.718
2025-09-03 22:29:54.418075,-0.05,0.015,0.999,0.0,0.0,-0.122,16.978,5.876,-46.254,0.846,2.891,-178.722
2025-09-03 22:29:54.438451,-0.05,0.015,0.999,0.0,0.0,-0.122,16.952,5.863,-46.241,0.846,2.891,-178.725
2025-09-03 22:29:54.459072,-0.05,0.015,0.999,0.0,0.0,-0.122,16.965,5.837,-46.254,0.846,2.891,-178.728
2025-09-03 22:29:54.479322,-0.05,0.015,0.999,0.0,0.0,-0.122,16.978,5.837,-46.28,0.846,2.891,-178.732
2025-09-03 22:29:54.499649,-0.05,0.015,0.999,0.0,0.0,-0.122,16.965,5.85,-46.267,0.845,2.891,-178.735
2025-09-03 22:29:54.520192,-0.05,0.015,0.999,0.0,0.0,0.0,16.965,5.863,-46.254,0.845,2.891,-178.738
2025-09-03 22:29:54.540690,-0.05,0.015,0.999,0.0,0.0,-0.122,16.978,5.863,-46.254,0.845,2.891,-178.742
2025-09-03 22:29:54.561062,-0.05,0.015,0.999,0.0,0.0,-0.122,16.965,5.928,-46.254,0.845,2.891,-178.745
2025-09-03 22:29:54.581272,-0.05,0.015,0.999,0.0,0.0,-0.122,16.952,5.863,-46.241,0.845,2.891,-178.749
2025-09-03 22:29:54.602062,-0.05,0.015,0.999,0.0,0.0,-0.122,16.952,5.863,-46.254,0.845,2.891,-178.752
2025-09-03 22:29:54.622436,-0.05,0.015,0.999,0.0,0.0,-0.122,16.978,5.837,-46.267,0.845,2.891,-178.756
2025-09-03 22:29:54.642809,-0.05,0.015,0.999,0.0,0.0,-0.122,16.991,5.759,-46.254,0.845,2.891,-178.759
2025-09-03 22:29:54.663181,-0.05,0.015,0.999,0.0,0.0,-0.122,16.978,5.824,-46.228,0.845,2.891,-178.763
2025-09-03 22:29:54.683559,-0.05,0.015,0.999,0.0,0.0,-0.122,16.978,5.876,-46.267,0.845,2.891,-178.766
2025-09-03 22:29:54.704058,-0.05,0.015,0.999,0.0,0.0,-0.122,16.978,5.863,-46.267,0.845,2.891,-178.769
2025-09-03 22:29:54.724426,-0.05,0.015,0.999,0.0,0.0,-0.122,16.991,5.889,-46.241,0.845,2.891,-178.773
2025-09-03 22:29:54.745051,-0.05,0.015,0.999,0.0,0.0,-0.122,16.978,5.863,-46.254,0.845,2.891,-178.776
2025-09-03 22:29:54.765548,-0.05,0.015,0.999,0.0,0.0,-0.122,16.991,5.824,-46.254,0.845,2.891,-178.78
2025-09-03 22:29:54.786058,-0.05,0.015,0.999,0.0,0.0,-0.122,17.017,5.85,-46.241,0.845,2.891,-178.783
2025-09-03 22:29:54.806298,-0.05,0.015,0.999,0.0,0.0,0.0,17.004,5.876,-46.254,0.845,2.891,-178.787
2025-09-03 22:29:54.826544,-0.05,0.015,0.999,0.0,0.0,-0.122,16.991,5.889,-46.267,0.844,2.891,-178.79
2025-09-03 22:29:54.847042,-0.05,0.015,0.999,0.0,0.0,-0.122,17.017,5.889,-46.254,0.844,2.891,-178.794
2025-09-03 22:29:54.867294,-0.05,0.015,0.999,0.0,0.0,-0.122,17.004,5.902,-46.267,0.844,2.891,-178.797
2025-09-03 22:29:54.887670,-0.05,0.015,0.999,0.0,0.0,-0.122,17.004,5.785,-46.267,0.844,2.891,-178.801
2025-09-03 22:29:54.908168,-0.05,0.015,0.999,0.0,0.0,-0.122,16.978,5.824,-46.241,0.844,2.891,-178.804
2025-09-03 22:29:54.928661,-0.05,0.015,0.999,0.0,0.0,-0.122,17.004,5.85,-46.267,0.844,2.891,-178.808
2025-09-03 22:29:54.949111,-0.05,0.015,0.999,0.0,0.0,-0.122,17.004,5.915,-46.254,0.844,2.891,-178.811
2025-09-03 22:29:54.969603,-0.05,0.015,0.999,0.0,0.0,-0.122,16.978,5.915,-46.267,0.844,2.891,-178.815
2025-09-03 22:29:54.990102,-0.05,0.015,0.999,0.0,0.0,-0.122,17.004,5.902,-46.254,0.844,2.891,-178.818
2025-09-03 22:29:55.010351,-0.05,0.015,0.999,0.0,0.0,-0.122,16.978,5.876,-46.254,0.844,2.891,-178.822
2025-09-03 22:29:55.030720,-0.05,0.015,0.999,0.0,0.0,-0.122,16.991,5.863,-46.241,0.844,2.891,-178.825
2025-09-03 22:29:55.051221,-0.05,0.015,0.999,0.0,0.0,0.0,16.991,5.915,-46.241,0.844,2.891,-178.828
2025-09-03 22:29:55.071721,-0.05,0.015,0.999,0.0,0.0,-0.122,17.004,5.876,-46.254,0.844,2.891,-178.832
2025-09-03 22:29:55.092093,-0.05,0.015,0.999,0.0,0.0,-0.122,17.017,5.889,-46.254,0.844,2.891,-178.835
2025-09-03 22:29:55.112467,-0.05,0.015,0.999,0.0,0.0,-0.122,16.991,5.915,-46.267,0.844,2.891,-178.838
2025-09-03 22:29:55.133098,-0.05,0.015,0.999,0.0,0.0,-0.122,16.978,5.876,-46.267,0.844,2.891,-178.842
2025-09-03 22:29:55.153346,-0.05,0.015,0.999,0.0,0.0,0.0,16.965,5.811,-46.241,0.843,2.891,-178.845
2025-09-03 22:29:55.173711,-0.05,0.015,0.999,0.0,0.0,-0.122,16.978,5.863,-46.254,0.843,2.891,-178.849
2025-09-03 22:29:55.194086,-0.05,0.015,0.999,0.0,0.0,-0.122,16.952,5.863,-46.254,0.843,2.891,-178.852
2025-09-03 22:29:55.214394,-0.05,0.015,1.0,0.0,0.0,-0.122,16.991,5.85,-46.254,0.843,2.891,-178.856
2025-09-03 22:29:55.235013,-0.05,0.015,1.0,0.0,0.0,-0.122,16.978,5.876,-46.267,0.843,2.891,-178.859
2025-09-03 22:29:55.255386,-0.05,0.015,1.0,0.0,0.0,-0.122,16.991,5.889,-46.254,0.843,2.891,-178.863
2025-09-03 22:29:55.275703,-0.05,0.015,1.0,0.0,0.0,-0.122,16.978,5.876,-46.241,0.843,2.891,-178.866
2025-09-03 22:29:55.296136,-0.05,0.015,1.0,0.0,0.0,-0.122,16.978,5.902,-46.254,0.843,2.891,-178.87
2025-09-03 22:29:55.316262,-0.05,0.015,1.0,0.0,0.0,-0.183,16.965,5.837,-46.254,0.843,2.891,-178.874
2025-09-03 22:29:55.337006,-0.05,0.015,1.0,0.0,0.0,-0.122,16.991,5.863,-46.254,0.843,2.891,-178.877
2025-09-03 22:29:55.357252,-0.05,0.015,0.999,0.0,0.0,-0.122,16.991,5.876,-46.254,0.843,2.891,-178.88
2025-09-03 22:29:55.377750,-0.05,0.015,0.999,0.0,0.0,-0.122,16.991,5.863,-46.28,0.843,2.891,-178.883
2025-09-03 22:29:55.398003,-0.05,0.015,0.999,0.0,0.0,-0.122,16.952,5.876,-46.28,0.843,2.891,-178.887
2025-09-03 22:29:55.418501,-0.05,0.015,0.999,0.0,0.0,-0.122,16.952,5.876,-46.28,0.843,2.891,-178.89
2025-09-03 22:29:55.438994,-0.05,0.015,0.999,0.0,0.0,-0.122,16.991,5.876,-46.241,0.843,2.891,-178.894
2025-09-03 22:29:55.459369,-0.05,0.015,0.999,0.0,0.0,-0.122,17.004,5.837,-46.267,0.843,2.891,-178.897
2025-09-03 22:29:55.479617,-0.05,0.015,0.999,0.0,0.0,-0.122,16.991,5.837,-46.241,0.843,2.891,-178.901
2025-09-03 22:29:55.500076,-0.05,0.015,0.999,0.0,0.0,-0.122,16.991,5.85,-46.241,0.843,2.891,-178.904
2025-09-03 22:29:55.520489,-0.05,0.015,0.999,0.0,0.0,-0.122,17.004,5.876,-46.254,0.843,2.891,-178.908
2025-09-03 22:29:55.540988,-0.05,0.015,0.999,0.0,0.0,-0.122,16.952,5.902,-46.254,0.843,2.891,-178.911
2025-09-03 22:29:55.561243,-0.05,0.015,0.999,0.0,0.0,-0.122,16.978,5.876,-46.254,0.843,2.891,-178.915
2025-09-03 22:29:55.581935,-0.05,0.015,0.999,0.0,0.0,-0.122,16.978,5.85,-46.267,0.843,2.891,-178.918
2025-09-03 22:29:55.602014,-0.05,0.015,0.999,0.0,0.0,-0.122,16.978,5.876,-46.28,0.843,2.891,-178.921
2025-09-03 22:29:55.622557,-0.05,0.015,0.999,0.0,0.0,-0.122,17.004,5.824,-46.228,0.843,2.891,-178.925
2025-09-03 22:29:55.643055,-0.05,0.015,0.999,0.0,0.0,-0.122,17.004,5.85,-46.254,0.843,2.891,-178.928
2025-09-03 22:29:55.663304,-0.05,0.015,0.999,0.0,0.0,-0.122,16.965,5.889,-46.28,0.843,2.891,-178.932
2025-09-03 22:29:55.683551,-0.05,0.015,0.999,0.0,0.0,-0.122,16.965,5.863,-46.267,0.843,2.891,-178.935
2025-09-03 22:29:55.704050,-0.05,0.015,0.999,0.0,0.0,-0.122,16.965,5.863,-46.28,0.843,2.891,-178.938
2025-09-03 22:29:55.724423,-0.05,0.015,0.999,0.0,0.0,-0.122,16.978,5.837,-46.28,0.843,2.891,-178.941
2025-09-03 22:29:55.744923,-0.05,0.015,0.999,0.0,0.0,-0.122,16.991,5.824,-46.241,0.842,2.891,-178.945
2025-09-03 22:29:55.765294,-0.05,0.015,0.999,0.0,0.0,-0.122,16.978,5.837,-46.254,0.842,2.891,-178.948
2025-09-03 22:29:55.785920,-0.05,0.015,0.999,0.0,0.0,-0.122,16.952,5.85,-46.254,0.842,2.891,-178.951
2025-09-03 22:29:55.806098,-0.05,0.015,0.999,0.0,0.0,-0.122,16.978,5.889,-46.267,0.842,2.891,-178.955
2025-09-03 22:29:55.826592,-0.05,0.015,0.999,0.0,0.0,-0.122,16.991,5.889,-46.28,0.842,2.891,-178.959
2025-09-03 22:29:55.847090,-0.05,0.015,0.999,0.0,0.0,-0.122,16.991,5.876,-46.267,0.842,2.891,-178.962
2025-09-03 22:29:55.867462,-0.05,0.015,0.999,0.0,0.0,-0.122,16.991,5.811,-46.241,0.842,2.891,-178.965
2025-09-03 22:29:55.887961,-0.05,0.015,0.999,0.0,0.0,-0.122,17.004,5.85,-46.254,0.842,2.891,-178.969
2025-09-03 22:29:55.908165,-0.05,0.015,0.999,0.0,0.0,0.0,16.978,5.85,-46.267,0.842,2.891,-178.972
2025-09-03 22:29:55.928708,-0.05,0.015,0.999,0.0,0.0,-0.122,17.017,5.85,-46.241,0.842,2.891,-178.976
2025-09-03 22:29:55.949081,-0.05,0.015,0.999,0.0,0.0,-0.122,17.017,5.902,-46.293,0.842,2.891,-178.979
2025-09-03 22:29:55.969579,-0.05,0.015,0.999,0.0,0.0,-0.122,17.004,5.889,-46.28,0.842,2.891,-178.983
2025-09-03 22:29:55.989954,-0.05,0.015,0.999,0.0,0.0,-0.122,17.004,5.876,-46.241,0.842,2.891,-178.986
2025-09-03 22:29:56.010456,-0.05,0.015,0.999,0.0,0.0,-0.122,16.991,5.85,-46.241,0.842,2.891,-178.989
2025-09-03 22:29:56.030911,-0.05,0.015,0.999,0.0,0.0,-0.122,16.939,5.863,-46.241,0.842,2.891,-178.993
2025-09-03 22:29:56.051329,-0.05,0.015,0.999,0.0,0.0,-0.122,16.952,5.889,-46.254,0.842,2.891,-178.996
2025-09-03 22:29:56.071900,-0.05,0.015,0.999,0.0,0.0,-0.122,17.004,5.902,-46.254,0.842,2.891,-179.0
2025-09-03 22:29:56.092071,-0.05,0.015,0.999,0.0,0.0,-0.122,16.991,5.902,-46.267,0.842,2.891,-179.003
2025-09-03 22:29:56.112569,-0.05,0.015,0.999,0.0,0.0,-0.122,16.965,5.915,-46.215,0.842,2.891,-179.006
2025-09-03 22:29:56.132942,-0.05,0.015,0.999,0.0,0.0,-0.122,16.965,5.876,-46.267,0.842,2.891,-179.01
2025-09-03 22:29:56.153441,-0.05,0.015,0.999,0.0,0.0,-0.122,16.965,5.863,-46.28,0.842,2.891,-179.013
2025-09-03 22:29:56.173938,-0.05,0.015,0.999,0.0,0.0,-0.122,16.978,5.876,-46.28,0.842,2.891,-179.016
2025-09-03 22:29:56.194313,-0.05,0.015,0.999,0.0,0.0,-0.183,16.978,5.889,-46.293,0.842,2.891,-179.02
2025-09-03 22:29:56.214815,-0.05,0.015,0.999,0.0,0.0,-0.122,16.978,5.915,-46.293,0.842,2.891,-179.024
2025-09-03 22:29:56.235185,-0.05,0.015,0.999,0.0,0.0,-0.122,16.978,5.902,-46.28,0.842,2.891,-179.027
2025-09-03 22:29:56.255432,-0.05,0.015,0.999,0.0,0.0,-0.122,17.004,5.902,-46.267,0.842,2.891,-179.03
2025-09-03 22:29:56.275931,-0.05,0.015,0.999,0.0,0.0,-0.122,16.952,5.902,-46.267,0.842,2.891,-179.034
2025-09-03 22:29:56.296180,-0.05,0.015,0.999,0.0,0.0,0.0,16.965,5.863,-46.254,0.842,2.891,-179.037
2025-09-03 22:29:56.316686,-0.05,0.015,0.999,0.122,0.061,-0.122,16.991,5.863,-46.267,0.843,2.891,-179.04
2025-09-03 22:29:56.337053,-0.05,0.015,0.999,-0.061,0.061,-0.122,17.004,5.85,-46.254,0.844,2.893,-179.043
2025-09-03 22:29:56.357550,-0.05,0.015,1.0,-0.183,-0.061,-0.183,17.03,5.85,-46.241,0.84,2.893,-179.047
2025-09-03 22:29:56.377922,-0.05,0.015,1.0,0.0,-0.061,-0.122,17.004,5.889,-46.267,0.837,2.891,-179.051
2025-09-03 22:29:56.398296,-0.05,0.015,1.0,0.122,0.122,-0.122,16.978,5.915,-46.28,0.839,2.891,-179.054
2025-09-03 22:29:56.418795,-0.05,0.015,1.0,0.0,0.061,-0.122,16.991,5.876,-46.267,0.841,2.894,-179.057
2025-09-03 22:29:56.439043,-0.05,0.015,1.0,-0.061,-0.061,-0.183,17.03,5.863,-46.28,0.84,2.894,-179.061
2025-09-03 22:29:56.459420,-0.05,0.015,1.0,0.0,-0.061,-0.183,17.004,5.837,-46.28,0.838,2.891,-179.065
2025-09-03 22:29:56.479915,-0.05,0.015,1.0,0.061,0.061,-0.122,17.03,5.837,-46.241,0.839,2.891,-179.068
2025-09-03 22:29:56.500412,-0.05,0.015,0.999,0.0,0.061,-0.122,17.03,5.863,-46.254,0.84,2.894,-179.071
2025-09-03 22:29:56.520916,-0.05,0.015,0.999,-0.061,-0.061,-0.122,16.991,5.889,-46.254,0.839,2.894,-179.075
2025-09-03 22:29:56.541285,-0.05,0.015,0.999,-0.061,-0.061,0.0,16.991,5.889,-46.267,0.837,2.892,-179.078
2025-09-03 22:29:56.561533,-0.05,0.015,0.999,0.0,0.061,-0.122,17.004,5.889,-46.267,0.837,2.892,-179.082
2025-09-03 22:29:56.582032,-0.05,0.015,0.999,0.0,0.061,-0.122,16.978,5.824,-46.254,0.838,2.894,-179.085
2025-09-03 22:29:56.602408,-0.05,0.015,0.999,0.0,0.0,-0.183,16.965,5.785,-46.228,0.838,2.894,-179.088
2025-09-03 22:29:56.622904,-0.05,0.015,1.0,0.0,-0.061,-0.183,16.991,5.837,-46.254,0.837,2.893,-179.092
2025-09-03 22:29:56.643401,-0.05,0.015,1.0,0.0,0.061,-0.122,16.965,5.85,-46.28,0.837,2.893,-179.096
2025-09-03 22:29:56.663901,-0.05,0.015,1.0,0.0,0.061,-0.122,16.978,5.863,-46.267,0.837,2.894,-179.099
2025-09-03 22:29:56.684148,-0.05,0.015,1.0,0.0,0.0,-0.122,16.991,5.876,-46.28,0.837,2.895,-179.102
2025-09-03 22:29:56.704531,-0.05,0.015,1.0,0.0,0.0,-0.183,16.926,5.876,-46.267,0.837,2.894,-179.106
2025-09-03 22:29:56.725026,-0.05,0.015,1.0,0.0,0.0,-0.122,17.017,5.863,-46.228,0.836,2.894,-179.11
2025-09-03 22:29:56.745394,-0.05,0.015,0.999,0.0,0.0,-0.122,17.017,5.837,-46.241,0.836,2.895,-179.113
2025-09-03 22:29:56.765892,-0.05,0.015,0.999,0.0,0.0,-0.122,17.017,5.85,-46.254,0.836,2.895,-179.117
2025-09-03 22:29:56.786264,-0.05,0.015,0.999,0.0,0.0,0.0,17.03,5.889,-46.254,0.836,2.894,-179.12
2025-09-03 22:29:56.806893,-0.05,0.015,0.999,0.0,0.0,-0.122,17.03,5.889,-46.254,0.836,2.895,-179.124
2025-09-03 22:29:56.827220,-0.05,0.015,0.999,0.0,0.0,-0.122,17.017,5.876,-46.267,0.836,2.896,-179.127
2025-09-03 22:29:56.847510,-0.05,0.015,0.999,0.0,0.0,-0.122,17.004,5.837,-46.267,0.836,2.895,-179.13
2025-09-03 22:29:56.868009,-0.05,0.015,0.999,0.0,0.0,-0.122,17.03,5.876,-46.228,0.836,2.895,-179.134
2025-09-03 22:29:56.888383,-0.05,0.015,0.999,0.0,0.0,-0.122,17.03,5.863,-46.267,0.836,2.895,-179.137
2025-09-03 22:29:56.908881,-0.05,0.015,0.999,0.0,0.0,-0.122,16.978,5.85,-46.267,0.836,2.896,-179.141
2025-09-03 22:29:56.929262,-0.05,0.015,0.999,0.0,0.0,0.0,17.004,5.889,-46.254,0.835,2.896,-179.144
2025-09-03 22:29:56.949852,-0.05,0.015,0.999,0.0,0.0,-0.122,16.978,5.902,-46.254,0.835,2.895,-179.148
2025-09-03 22:29:56.970213,-0.05,0.015,0.999,0.0,0.0,0.0,16.952,5.889,-46.254,0.835,2.896,-179.151
2025-09-03 22:29:56.990834,-0.05,0.015,0.999,0.0,0.0,-0.122,16.978,5.876,-46.254,0.835,2.896,-179.155
2025-09-03 22:29:57.011085,-0.05,0.015,0.999,0.0,0.0,-0.122,16.978,5.889,-46.241,0.835,2.896,-179.158
2025-09-03 22:29:57.031458,-0.05,0.015,0.999,0.0,0.0,-0.122,16.965,5.85,-46.241,0.835,2.896,-179.162
2025-09-03 22:29:57.052082,-0.05,0.015,0.999,0.0,0.0,-0.122,17.017,5.876,-46.254,0.836,2.896,-179.165
2025-09-03 22:29:57.072580,-0.05,0.015,0.999,0.0,0.0,-0.122,16.991,5.889,-46.267,0.836,2.897,-179.168
2025-09-03 22:29:57.092829,-0.05,0.015,0.999,0.0,0.0,-0.122,16.965,5.902,-46.254,0.835,2.896,-179.172
2025-09-03 22:29:57.113202,-0.05,0.015,0.999,0.0,0.0,0.0,16.965,5.876,-46.254,0.835,2.896,-179.175
2025-09-03 22:29:57.133774,-0.05,0.015,0.999,0.0,0.0,-0.122,16.952,5.876,-46.267,0.835,2.897,-179.179
2025-09-03 22:29:57.154198,-0.05,0.015,0.999,0.0,0.0,-0.122,16.978,5.876,-46.267,0.835,2.897,-179.182
2025-09-03 22:29:57.174445,-0.05,0.015,0.999,0.0,0.0,-0.122,16.965,5.85,-46.254,0.834,2.897,-179.186
2025-09-03 22:29:57.194945,-0.05,0.015,0.999,0.0,0.0,-0.122,16.965,5.85,-46.254,0.834,2.896,-179.189
2025-09-03 22:29:57.215445,-0.05,0.015,0.999,0.0,0.0,-0.122,16.965,5.85,-46.254,0.834,2.897,-179.192
2025-09-03 22:29:57.235857,-0.05,0.015,0.999,0.0,0.0,-0.122,16.978,5.889,-46.241,0.834,2.897,-179.195
2025-09-03 22:29:57.256355,-0.05,0.015,0.999,0.0,0.0,0.0,16.978,5.928,-46.267,0.834,2.897,-179.199
2025-09-03 22:29:57.276852,-0.05,0.015,0.999,0.0,0.0,-0.122,16.965,5.876,-46.254,0.833,2.897,-179.202
2025-09-03 22:29:57.297224,-0.05,0.015,0.999,0.0,0.0,-0.122,16.991,5.85,-46.267,0.833,2.897,-179.206
2025-09-03 22:29:57.317848,-0.05,0.015,0.999,0.0,0.0,-0.122,17.004,5.863,-46.267,0.834,2.898,-179.209
2025-09-03 22:29:57.337977,-0.05,0.015,0.999,0.0,0.0,-0.122,16.991,5.863,-46.28,0.834,2.898,-179.212
2025-09-03 22:29:57.358347,-0.05,0.015,0.999,0.0,0.0,-0.122,17.004,5.824,-46.228,0.834,2.898,-179.216
