Timestamp,AccX_filt,AccY_filt,AccZ_filt,AsX_filt,AsY_filt,AsZ_filt,Yaw_filt(deg)
2025-09-03 22:29:34.127292,0.000721311475409957,-0.0002868852459016886,0.0006352459016412129,-0.057979508196721326,-0.0034999999999999988,0.018749999999999913,0.0003749999999999982
2025-09-03 22:29:34.147667,0.0003252011595466479,-0.0003330170479950015,0.0005891140995478999,0.04310207359972386,0.0070659863114543794,0.018749999999999913,0.0007570359706878625
2025-09-03 22:29:34.167914,0.00047405714844013074,-0.0006056210547018999,0.00031651009284100094,0.034467158193385784,-0.0037340292364232476,0.018749999999999913,0.0011366266608238166
2025-09-03 22:29:34.187909,0.0005522898545890152,-0.0008902483468022119,3.188280074068838e-05,0.05633624373418409,-0.0037818533942945063,0.02437807985538409,0.0016240541126518375
2025-09-03 22:29:34.208283,0.0007318654150567652,-0.0011276476538173974,-0.00020551650627449757,0.07237211033305005,-0.0034665658905563986,0.05200768881824156,0.0031788969392336727
2025-09-03 22:29:34.228658,0.0007251750798367401,-0.0013008106349590492,-0.00037867948741614963,0.058520916324137064,-0.0034950572585556506,0.05347452963623802,0.003937681099416633
2025-09-03 22:29:34.248654,0.0007206417963791043,-0.0012901479467875697,-0.0003680167992446698,0.03986552476791112,-0.0035014302551525187,0.04771271545585261,0.004996200882680133
2025-09-03 22:29:34.268903,0.0007212637442289372,-0.0012861754816816237,-0.000364044334138724,0.04674990038148866,-0.0006859668043088692,0.03987588369928147,0.006109855736516071
2025-09-03 22:29:34.289158,0.0007213352662099764,-0.0012407268001865682,-0.0003185956526436687,0.03757776211723271,0.01312888620067083,0.01744915204307938,0.0058513902919808515
2025-09-03 22:29:34.309276,0.0007213105950932328,-0.0009681723836610829,-4.604123611818269e-05,0.01374457809783727,0.011048221125183466,0.015451319329382424,0.006191574310011291
2025-09-03 22:29:34.329648,0.0007213108742522698,-0.0006835207378916223,0.00023861040965127817,0.008718419875576307,-0.00564748752700995,0.002204496303866519,0.006003706469168594
2025-09-03 22:29:34.349771,0.0007213115576881518,-0.00044612231102378894,0.000476008836519112,0.027578030575977734,-0.004671242924629077,0.0013937851840132472,0.0061953714989159405
2025-09-03 22:29:34.369896,0.0007213114849132433,-0.00027295994725173216,0.0006491712002911695,0.06369378408651723,0.01462590711833888,0.004265671124437481,0.006229551307322993
2025-09-03 22:29:34.390144,0.0007213114721422495,-0.00028362255161412295,0.0006385085959287785,0.06598775694781595,0.017605227481405476,0.005373125600644015,0.0061861390038939305
2025-09-03 22:29:34.410394,0.0007213114754460644,-0.0003337268089886407,0.0005884043385542607,0.05243153140971448,0.009525965382071162,0.0027716548884299114,0.006300995261591395
2025-09-03 22:29:34.430765,0.0007213114755005607,-0.0006056476984394903,0.0003164834491034106,0.04932571264399485,0.003323004181520662,0.0016300453286347155,0.006485380202247094
2025-09-03 22:29:34.450887,0.0007213114754003352,-0.0008902254003244739,3.190574721842648e-05,0.07503491993921443,-0.0026965172060618944,0.0042269707169614685,0.006511239223780803
2025-09-03 22:29:34.471091,0.0007213114754082617,-0.0011276490609158525,-0.0002055179133729528,0.08436388093541945,-2.32901421857697e-06,0.005369993629350332,0.006467958548575948
2025-09-03 22:29:34.491258,0.0007213114754103945,-0.0013008111619199339,-0.00037868001437703434,0.07073910176417667,-0.004912198756382617,0.0027730651390197184,0.006582321881276628
2025-09-03 22:29:34.511636,0.0007213114754099644,-0.0012901478563806074,-0.00036801670883770786,0.05843927939296825,-0.007236971468534051,0.001630001853014563,0.006766408542304115
2025-09-03 22:29:34.531760,0.0007213114754099437,-0.001286175475083304,-0.0003640443275404039,0.07345563278699421,0.0007664228674420007,0.004226934257227941,0.0067923254344149945
2025-09-03 22:29:34.552005,0.0007213114754099581,-0.001286858605506294,-0.00036472745796339444,0.10220441952467263,0.019682934699276327,0.013812118117244816,0.006920364289003149
2025-09-03 22:29:34.572254,0.0007213114754099575,-0.0012869081923455117,-0.00036477704480261235,0.09188310341269415,0.029037278371148317,0.05265959896977453,0.008789724217850072
2025-09-03 22:29:34.592628,0.0007213114754099571,-0.001286883838710278,-0.00036475269116737836,0.06865574286431526,0.021789580826853665,0.05371679611483653,0.009537775119867776
2025-09-03 22:29:34.612753,0.0007213114754099571,-0.0012868847189505847,-0.00036475357140768527,0.058020167135194985,0.009183363013062678,0.04767100744188411,0.01059319378686789
2025-09-03 22:29:34.632753,0.0007213114754099571,-0.0012868853363103981,-0.00036475418876749833,0.052387964519454704,0.012233134273000924,0.03987286381623982,0.011697751717944287
2025-09-03 22:29:34.653124,0.0007213114754099571,-0.0012407534504062481,-0.0003186223028633485,0.04898896993356148,0.010849098703368865,0.01463659828791782,0.011385988416720682
2025-09-03 22:29:34.673124,0.0007213114754099571,-0.0009681494338750559,-4.6018286332155664e-05,0.04153268675744034,-0.00560285034029985,0.0016364609549838621,0.011200884974684714
2025-09-03 22:29:34.693507,0.0007213114754099571,-0.0006835221451169603,0.00023860900242594015,0.0317271156194847,-0.007483781869102229,0.0014710382374191287,0.011411279096559397
2025-09-03 22:29:34.713618,0.0007213114754099571,-0.0004461228380678457,0.0004760083094750552,0.0358737644950271,-0.002004363859982255,0.004274697392231128,0.011443701876170052
2025-09-03 22:29:34.733867,0.0007213114754099571,-0.0002729598568332403,0.0006491712907096612,0.03470534991739764,0.00024305461444554125,0.00818408760143474,0.011456927181039436
2025-09-03 22:29:34.754114,0.0007213114754099571,-0.0002836225450145019,0.0006385086025283997,0.028112571106401387,-0.004955360008702176,0.01940053115245583,0.012156395663770322
2025-09-03 22:29:34.774239,0.0007213114754099571,-0.0002875950101221957,0.0006345361374207058,0.012933051711132825,-0.010053983304918546,0.01899239569264929,0.01252394643405526
2025-09-03 22:29:34.794565,0.0007213114754099571,-0.00033304369161680396,0.0005890874559260974,0.002126368668715939,-0.01867493802635559,0.018708319424468094,0.01289677768072259
2025-09-03 22:29:34.814735,0.0007213114754099571,-0.0006055981081422813,0.00031653303940061946,0.002819971192178678,-0.014308233332000105,0.018746973799717816,0.013276048659437361
2025-09-03 22:29:34.834859,0.0007213114754099571,-0.0008902497539117554,3.188139363114497e-05,0.0030652145751234715,-0.0028063824395288413,0.01875148598146086,0.013653500998127038
2025-09-03 22:29:34.855107,0.0007213114754099571,-0.0011276481807795879,-0.00020551703323668787,0.005836064837804609,-0.003254713433859474,0.018749946306901036,0.0140331151898831
2025-09-03 22:29:34.875356,0.0007213114754099571,-0.0013008105445516446,-0.00037867939700874493,0.025275983992880134,-0.0035431941884625094,0.0187499623291146,0.014412768648846275
2025-09-03 22:29:34.895729,0.0007213114754099571,-0.001290147940189254,-0.0003680167926463541,0.05926861684342527,-0.0035029659957700435,0.018750005113546853,0.014794779036246897
2025-09-03 22:29:34.915853,0.0007213114754099571,-0.001286175484908049,-0.00036404433736514916,0.08829814044710317,-0.003498476169424007,0.01875000059952243,0.015172089725458127
2025-09-03 22:29:34.936102,0.0007213114754099571,-0.0012868586021640975,-0.000364727454621198,0.09389951743799196,-0.003500059010887528,0.018749999796070657,0.015551756387475262
2025-09-03 22:29:34.956224,0.0006751796733166444,-0.0012869081923794262,-0.00036477704483652647,0.06982093140344858,-0.0035000382561881887,0.01875000000206778,0.015929044854011205
2025-09-03 22:29:34.976599,0.00044870746870306,-0.0012868838388032328,-0.00036475269126033324,0.03708456510396113,-0.0034999946779940344,0.01875000000567183,0.016311089765537825
2025-09-03 22:29:34.996721,0.00043668418330964633,-0.0012868847189408034,-0.0003647535713979037,0.011839615301799885,-0.0034999994033836053,0.01874999999940311,0.016688373755740393
2025-09-03 22:29:35.016969,0.0004839121683947723,-0.00128688533630865,-0.00036475418876575044,0.0019717927908742537,-0.0035000002096521035,0.018749999999893244,0.017068035971463086
2025-09-03 22:29:35.037091,0.0005481484942683059,-0.001286885252500008,-0.0003186223028637955,0.0028660765738217674,-0.0034999999973063774,0.018750000000027182,0.01744532443219855
2025-09-03 22:29:35.057590,0.0007319741635814367,-0.0012868852426752753,-4.601828633216366e-05,0.0030652947033364317,-0.003499999994222688,0.018750000000000395,0.01782967604333519
2025-09-03 22:29:35.077590,0.0007252839405159029,-0.0012868852460174705,0.00023860900242595378,0.005834730621895343,-0.0035000000006247933,0.01874999999999908,0.018204666745010565
2025-09-03 22:29:35.097715,0.0007206283548116995,-0.0012868852459835558,0.00047600830947505424,0.02527610807867908,-0.0035000000001070464,0.018749999999999975,0.018582004379574035
2025-09-03 22:29:35.117839,0.0007212618852285442,-0.001286885245890601,0.0006491712907096609,0.053640563623701135,-0.0034999999999718798,0.018749999999999926,0.018959324132744045
2025-09-03 22:29:35.138041,0.0007213358290791053,-0.0012868852459003827,0.0006385086025283998,0.0522264056075358,-0.003499999999999582,0.018749999999999906,0.01933815933400747
2025-09-03 22:29:35.158210,0.0007213105952626048,-0.001286885245902131,0.0006345361374207057,0.042546143203479915,-0.0035000000000008466,0.01593596007230782,0.01965954543062717
2025-09-03 22:29:35.178583,0.0007213108580403625,-0.0012868852459016835,0.0005890874559260974,0.02630999125042438,-0.00349999999999993,0.0021211555908790926,0.019455672152258054
2025-09-03 22:29:35.198830,0.0007213115592190462,-0.0012868852459016755,0.0003165330394006195,0.020920208000701584,-0.00349999999999998,0.001387735181880863,0.01964970843338157
2025-09-03 22:29:35.219078,0.000721311485234698,-0.0012868852459016892,3.188139363114498e-05,0.0365686306319775,-0.003500000000000002,0.004268642272073578,0.01968443991075504
2025-09-03 22:29:35.239578,0.0007213114720677484,-0.0012868852459016883,-0.00020551703323668785,0.03495048005908678,-0.003499999999999998,0.00537301822266706,0.01964167958522015
2025-09-03 22:29:35.259575,0.0007213114754438725,-0.0012868852459016879,-0.0003786793970087449,0.028069355809915045,-0.003499999999999998,0.0027715795693393597,0.019756526026813145
2025-09-03 22:29:35.279699,0.0007213114755029121,-0.0012868852459016879,-0.0003680167926463541,0.010116052288171438,-0.003499999999999998,0.0016300555533435611,0.019941481384434297
2025-09-03 22:29:35.299824,0.0007213114754001755,-0.0012868852459016879,-0.0003179125352718362,-0.017314991845961587,-0.003499999999999998,0.0014129319878877756,0.01991201361903611
2025-09-03 22:29:35.320141,0.0007213114754082091,-0.0012868852459016879,-4.5991645820986086e-05,-0.03117119723219299,-0.003499999999999998,-0.002816731404443687,0.019458529288316106
2025-09-03 22:29:35.340264,0.0007213114754104042,-0.0012868852459016879,0.00023858605606399798,-0.025964406281532064,-0.003499999999999998,0.03529733355240083,0.02113547750897869
2025-09-03 22:29:35.360638,0.0007213114754099652,-0.0012868852459016879,0.0004760097166553772,-0.002579385004971105,-0.003499999999999998,0.0392354385907859,0.021536914986646297
2025-09-03 22:29:35.380762,0.0007213114754099434,-0.0012868852459016879,0.0006491718176594587,0.027097651680189103,-0.003499999999999998,0.03710806559017284,0.02222678413831758
2025-09-03 22:29:35.400885,0.0007213114754099581,-0.0012868852459016879,0.0006385085121201322,0.038570989965664944,-0.003499999999999998,0.04052328778902995,0.023654894219218268
2025-09-03 22:29:35.421045,0.0007213114754099575,-0.0012868852459016879,0.0005884043287295152,0.04770835826907469,-0.003499999999999998,0.017692958587669325,0.023385495758519184
2025-09-03 22:29:35.441436,0.0007213114754099571,-0.0012868852459016879,0.00031648345244560697,0.046879417833775514,-0.003499999999999998,0.01822363500771759,0.02377886339997027
2025-09-03 22:29:35.461694,0.0007213114754099571,-0.0012868852459016879,3.19057471845123e-05,0.03396983017690449,-0.003499999999999998,0.01883027805444471,0.02417632853320907
2025-09-03 22:29:35.481934,0.0007213114754099571,-0.0012868852459016879,-0.0002055179134659076,0.02786557345245726,-0.003499999999999998,0.015943500766282932,0.02449687605898594
2025-09-03 22:29:35.502056,0.0007213114754099571,-0.0012868852459016879,-0.0003786800143672528,0.012977613675746109,-0.003499999999999998,0.0021181313529670376,0.024290505520139786
2025-09-03 22:29:35.522554,0.0007213114754099571,-0.0012868852459016879,-0.0003680167088359597,0.0021292543283410333,-0.003499999999999998,0.0013878046963311775,0.024485011980891258
2025-09-03 22:29:35.542553,0.0007213114754099571,-0.0012868852459016879,-0.0003640443275408509,0.0028184156158469202,-0.003499999999999998,0.004268722705614667,0.024518490813080124
2025-09-03 22:29:35.562756,0.0007213114754099571,-0.0012868852459016879,-0.00031859565587008943,0.0030652789048861468,-0.003499999999999998,0.008187048530630243,0.024530990423493416
2025-09-03 22:29:35.582924,0.0007213114754099571,-0.0012868852459016879,-9.217303809569974e-05,0.0030220635758840533,-0.003499999999999998,0.025028502430753722,0.025341830199848724
2025-09-03 22:29:35.603173,0.0007213114754099571,-0.0012868852459016879,-8.012539906706689e-05,0.003019054214524953,-0.003499999999999998,0.05225000959941601,0.026878305502976894
2025-09-03 22:29:35.623570,0.0007213114754099571,-0.0012868852459016879,-0.00012735426439249953,0.0030205827614523326,-0.003499999999999998,0.05343285928130417,0.027629293786958737
2025-09-03 22:29:35.643618,0.0007213114754099571,-0.0012868852459016879,-0.0001915912076258463,0.0030205245515720464,-0.003499999999999998,0.047709690442849687,0.028690774115662697
2025-09-03 22:29:35.663948,0.0007213114754099571,-0.0012868852459016879,-0.0003754167931281413,0.0030204860837965953,-0.003499999999999998,0.0398773692741854,0.02980734051195101
2025-09-03 22:29:35.684193,0.0007213114754099571,-0.0012868852459016879,-0.0003687265602383134,0.0030204914027984046,-0.003499999999999998,0.017449098354331498,0.0295469079287095
2025-09-03 22:29:35.704610,0.0007213114754099571,-0.0012868852459016879,-0.0003640709778763267,0.0030204920057875445,-0.003499999999999998,0.018265321597475195,0.02994918690625919
2025-09-03 22:29:35.724733,0.0007213114754099571,-0.0012868852459016879,-0.00036470450825924224,0.003020491795618185,-0.003499999999999998,0.018833345825339954,0.03034312329248249
2025-09-03 22:29:35.744811,0.0007213114754099571,-0.0012868852459016879,-0.0003647784520168495,0.003020491798177438,-0.003499999999999998,0.018756050601443214,0.030717465437173408
2025-09-03 22:29:35.765061,0.0007213114754099571,-0.0012868852459016879,-0.000364753218210131,0.003020491803982361,-0.003499999999999998,0.018747028648488973,0.03109686689258252
2025-09-03 22:29:35.785605,0.0007213114754099571,-0.0012868852459016879,-0.0003647534809896364,0.003020491803358816,-0.003499999999999998,0.018750107380045667,0.03148214597999795
2025-09-03 22:29:35.805616,0.0007213114754099571,-0.0012868852459016879,-0.0003647541821678729,0.0030204918032508553,-0.003499999999999998,0.01875007532476073,0.03185734190549126
2025-09-03 22:29:35.825852,0.0007213114754099571,-0.0012868852459016879,-0.0003647541081835169,0.0030204918032790246,-0.003499999999999998,0.01874998977469439,0.032236773654005485
2025-09-03 22:29:35.846029,0.0007213114754099571,-0.0012868852459016879,-0.00036475409501658093,0.003020491803279463,-0.003499999999999998,0.018749998801274887,0.032615095010279156
2025-09-03 22:29:35.866529,0.0007213114754099571,-0.0012868852459016879,-0.00036475409839270415,0.003020491803278611,-0.003499999999999998,0.018750000407776645,0.03299947349149672
2025-09-03 22:29:35.886526,0.0007213114754099571,-0.0012868852459016879,-0.00036475409845174346,0.003020491803278679,-0.003499999999999998,0.01593596006817062,0.03331814298474546
2025-09-03 22:29:35.906650,0.0007213114754099571,-0.0012868852459016879,-0.00036475409834900685,0.0030204918032786967,-0.003499999999999998,0.002121155579537739,0.03311305823285572
2025-09-03 22:29:35.927023,0.0007213114754099571,-0.0012868852459016879,-0.00036475409835704035,0.0030204918032786933,-0.003499999999999998,0.0013877351830742816,0.033306986368506625
2025-09-03 22:29:35.947273,0.0007213114754099571,-0.0012868852459016879,-0.00036475409835923543,0.003020491803278693,-0.003499999999999998,0.004268642272286857,0.03334153004666616
2025-09-03 22:29:35.967397,0.0007213114754099571,-0.0012868852459016879,-0.00036475409835879627,0.003020491803278693,-0.003499999999999998,0.008187058150304604,0.03335354870065582
2025-09-03 22:29:35.987646,0.0007213114754099571,-0.0012868852459016879,-0.00036475409835877475,0.003020491803278693,-0.003499999999999998,0.019400423978459206,0.0340528522094627
2025-09-03 22:29:36.007891,0.0007213114754099571,-0.0012868852459016879,-0.0003647540983587895,0.003020491803278693,-0.003499999999999998,0.01899232037146427,0.034422723783004545
2025-09-03 22:29:36.028139,0.0007213114754099571,-0.0012868852459016879,-0.00036475409835878874,0.003020491803278693,-0.003499999999999998,0.018708329643506067,0.03479407763242738
2025-09-03 22:29:36.048538,0.0007213114754099571,-0.0012868852459016879,-0.0003647540983587883,0.003020491803278693,-0.003499999999999998,0.01874697499893368,0.03517763498181301
2025-09-03 22:29:36.068583,0.0007213114754099571,-0.0012868852459016879,-0.0003647540983587883,0.003020491803278693,-0.003499999999999998,0.018751485573817967,0.03555360791216997
2025-09-03 22:29:36.088955,0.0007213114754099571,-0.0012868852459016879,-0.0003647540983587883,0.003020491803278693,-0.003499999999999998,0.018749946311011432,0.03593554662874602
2025-09-03 22:29:36.109204,0.0007213114754099571,-0.0012868852459016879,-0.0003647540983587883,0.003020491803278693,-0.003499999999999998,0.018749962340454628,0.03631520009072151
2025-09-03 22:29:36.129577,0.0007213114754099571,-0.0012868852459016879,-0.0003647540983587883,0.003020491803278693,-0.003499999999999998,0.018750005112354334,0.03669720153855051
2025-09-03 22:29:36.149579,0.0007213114754099571,-0.0012868852459016879,-0.0003647540983587883,0.003020491803278693,-0.003499999999999998,0.01875000059930911,0.03707229046445006
2025-09-03 22:29:36.169700,0.0007213114754099571,-0.0012868852459016879,-0.0003647540983587883,0.003020491803278693,-0.003499999999999998,0.01874999979612518,0.0374495118459932
2025-09-03 22:29:36.189948,0.0007213114754099571,-0.0012868852459016879,-0.00031862229626547533,0.003020491803278693,-0.003499999999999998,0.01875000000206875,0.03782916512678065
2025-09-03 22:29:36.210196,0.0007213114754099571,-0.0012868852459016879,-4.601828955857649e-05,0.003020491803278693,-0.003499999999999998,0.018750000005670165,0.03820880052054081
2025-09-03 22:29:36.230570,0.0007213114754099571,-0.0012868852459016879,0.00023860900254173606,0.003020491803278693,-0.003499999999999998,0.018749999999403234,0.03859081860965489
2025-09-03 22:29:36.250817,0.0007213114754099571,-0.0012868852459016879,0.0004760083095569221,0.003020491803278693,-0.003499999999999998,0.018749999999893283,0.03897045400328751
2025-09-03 22:29:36.270818,0.0007213114754099571,-0.0012868852459016879,0.0006491712906985742,0.003020491803278693,-0.003499999999999998,0.018750000000027175,0.03934546705670867
2025-09-03 22:29:36.291189,0.0007213114754099571,-0.0012868852459016879,0.0006385086025270944,0.003020491803278693,-0.003499999999999998,0.018750000000000395,0.03972743597217041
2025-09-03 22:29:36.311566,0.0007213114754099571,-0.0012868852459016879,0.0005884043353278356,0.003020491803278693,-0.003499999999999998,0.018749999999999076,0.04010949429460002
2025-09-03 22:29:36.331490,0.0007213114754099571,-0.0012868852459016879,0.0003164834492191942,0.003020491803278693,-0.003499999999999998,0.01874999999999997,0.04048307683654264
2025-09-03 22:29:36.351741,0.0007213114754099571,-0.0012868852459016879,3.190574730029456e-05,0.003020491803278693,-0.003499999999999998,0.018749999999999926,0.04086277481503919
2025-09-03 22:29:36.371989,0.0007213114754099571,-0.0012868852459016879,-0.00020551791338403974,0.003020491803278693,-0.003499999999999998,0.018749999999999906,0.04124242809005217
2025-09-03 22:29:36.392112,0.0007213114754099571,-0.0012868852459016879,-0.0003786800143783397,0.003020491803278693,-0.003499999999999998,0.018749999999999906,0.041619738902525474
2025-09-03 22:29:36.412484,0.0007213114754099571,-0.0012868852459016879,-0.0003680167088372652,0.003020491803278693,-0.003499999999999998,0.018749999999999906,0.04200169887729125
2025-09-03 22:29:36.432608,0.0007213114754099571,-0.0012868852459016879,-0.00031791252544709523,0.003020491803278693,-0.003499999999999998,0.018749999999999906,0.042379023100809626
2025-09-03 22:29:36.452984,0.0007213114754099571,-0.0012868852459016879,-4.5991649163194866e-05,0.003020491803278693,-0.003499999999999998,0.018749999999999906,0.042761081423239276
2025-09-03 22:29:36.472982,0.0007213114754099571,-0.0012868852459016879,0.00023858605609791342,0.003020491803278693,-0.003499999999999998,0.018749999999999906,0.04313607659526305
2025-09-03 22:29:36.493479,0.0007213114754099571,-0.0012868852459016879,0.00047600971674833224,0.003020491803278693,-0.003499999999999998,0.018749999999999906,0.043520361151175066
2025-09-03 22:29:36.513605,0.0007213114754099571,-0.0012868852459016879,0.0006491718176496772,0.003020491803278693,-0.003499999999999998,0.018749999999999906,0.04389772560782866
2025-09-03 22:29:36.533726,0.0007213114754099571,-0.0012868852459016879,0.0006385085121183842,0.003020491803278693,-0.003499999999999998,0.018749999999999906,0.04427499618716673
2025-09-03 22:29:36.553931,0.0007213114754099571,-0.0012868852459016879,0.0006345361308232754,0.003020491803278693,-0.003499999999999998,0.024378079855384083,0.04476753255150869
2025-09-03 22:29:36.574474,0.0007213114754099571,-0.0012868852459016879,0.0005890874591525138,0.003020491803278693,-0.003499999999999998,0.05200768881824156,0.04632982300752625
2025-09-03 22:29:36.594595,0.0007213114754099571,-0.0012868852459016879,0.0003165330392848112,0.003020491803278693,-0.003499999999999998,0.05347452963623802,0.0470734971369584
2025-09-03 22:29:36.614844,0.0007213114754099571,-0.0012868852459016879,3.188139354927945e-05,0.003020491803278693,-0.003499999999999998,0.04771271545585261,0.04814274605897456
2025-09-03 22:29:36.635091,0.0007213114754099571,-0.0012868852459016879,-0.00020551703322560042,0.003020491803278693,-0.003499999999999998,0.04550396355466564,0.04936987137542884
2025-09-03 22:29:36.655467,0.0007213114754099571,-0.0012868852459016879,-0.0003786793970074397,0.003020491803278693,-0.003499999999999998,0.05070684086132103,0.050285386251406425
2025-09-03 22:29:36.675465,0.0007213114754099571,-0.0012868852459016879,-0.0003680167926467968,0.003020491803278693,-0.003499999999999998,0.052989888893312624,0.05104160724381256
2025-09-03 22:29:36.695712,0.0007213114754099571,-0.0012868852459016879,-0.00036404433736514477,0.003020491803278693,-0.003499999999999998,0.04779605616884002,0.05212617415608836
2025-09-03 22:29:36.716086,0.0007213114754099571,-0.0012868852459016879,-0.0003647274546211856,0.003020491803278693,-0.003499999999999998,0.04551001355679801,0.05335507211547952
2025-09-03 22:29:36.736460,0.0007213114754099571,-0.0012868852459016879,-0.00036477704483652777,0.003020491803278693,-0.003499999999999998,0.05070386971368493,0.054269109933094056
2025-09-03 22:29:36.756461,0.0007213114754099571,-0.0012868852459016879,-0.00036475269126033346,0.003020491803278693,-0.003499999999999998,0.052989996271289586,0.05502483851627397
2025-09-03 22:29:36.776710,0.0007213114754099571,-0.0012868852459016879,-0.0003647535713979037,0.003020491803278693,-0.003499999999999998,0.04779613148793057,0.05610923911570765
2025-09-03 22:29:36.796955,0.0007213114754099571,-0.0012868852459016879,-0.00036475418876575044,0.003020491803278693,-0.003499999999999998,0.039881923476704995,0.05721834260777792
2025-09-03 22:29:36.817032,0.0007213114754099571,-0.0012868852459016879,-0.0003647541049571085,0.003020491803278693,-0.003499999999999998,0.017446179696824892,0.05695621781979155
2025-09-03 22:29:36.837452,0.0007213114754099571,-0.0012868852459016879,-0.0003647540951323756,0.003020491803278693,-0.003499999999999998,0.01826546704280094,0.057358487660410885
2025-09-03 22:29:36.857700,0.0007213114754099571,-0.0012868852459016879,-0.0003647540984745707,0.003020491803278693,-0.003499999999999998,0.0188334160279402,0.05775472238347697
2025-09-03 22:29:36.877950,0.0007213114754099571,-0.0012868852459016879,-0.00036475409844065625,0.003020491803278693,-0.003499999999999998,0.01875603976608293,0.05813225593443378
2025-09-03 22:29:36.898071,0.0007213114754099571,-0.0012868852459016879,-0.0003647540983477016,0.003020491803278693,-0.003499999999999998,0.018747027654938773,0.058509265283355524
2025-09-03 22:29:36.918445,0.0007213114754099571,-0.0012868852459016879,-0.00036475409835748303,0.003020491803278693,-0.003499999999999998,0.018750107785939597,0.05889134821359789
2025-09-03 22:29:36.938569,0.0007213114754099571,-0.0012868852459016879,-0.0003647540983592311,0.003020491803278693,-0.003499999999999998,0.01875007531489824,0.0592686809797335
2025-09-03 22:29:36.958654,0.0007213114754099571,-0.0012868852459016879,-0.000364754098358784,0.003020491803278693,-0.003499999999999998,0.018749989763949572,0.05964534558867594
2025-09-03 22:29:36.978943,0.0007213114754099571,-0.0012868852459016879,-0.0003647540983587761,0.003020491803278693,-0.003499999999999998,0.02437807865796071,0.06013986996548969
2025-09-03 22:29:36.999314,0.0007213114754099571,-0.0012868852459016879,-0.00036475409835878966,0.003020491803278693,-0.003499999999999998,0.05200768922620417,0.06169354543050061
2025-09-03 22:29:37.019562,0.0007213114754099571,-0.0012868852459016879,-0.0003647540983587887,0.003020491803278693,-0.003499999999999998,0.05347452963204577,0.06244412288098302
2025-09-03 22:29:37.039686,0.0007213114754099571,-0.0012868852459016879,-0.0003647540983587883,0.003020491803278693,-0.003499999999999998,0.047712715444511104,0.06350740029867291
2025-09-03 22:29:37.059890,0.0007213114754099571,-0.0012868852459016879,-0.0003647540983587883,0.003020491803278693,-0.003499999999999998,0.03987588370047647,0.06461855541210734
2025-09-03 22:29:37.080187,0.0007213114754099571,-0.0012868852459016879,-0.0003647540983587883,0.003020491803278693,-0.003499999999999998,0.01744915204329251,0.06436087055939768
2025-09-03 22:29:37.100434,0.0007213114754099571,-0.0012868852459016879,-0.0003647540983587883,0.003020491803278693,-0.003499999999999998,0.018265359257019942,0.06476004856819065
2025-09-03 22:29:37.120554,0.0007213114754099571,-0.0012868852459016879,-0.0003647540983587883,0.003020491803278693,-0.003499999999999998,0.01883334071298638,0.0651538621842468
2025-09-03 22:29:37.140928,0.0007213114754099571,-0.0012868852459016879,-0.0003647540983587883,0.003020491803278693,-0.003499999999999998,0.018756050002133956,0.065533750676001
2025-09-03 22:29:37.161183,0.0007213114754099571,-0.0012868852459016879,-0.0003647540983587883,0.003020491803278693,-0.003499999999999998,0.01874702885236368,0.06591329911691794
2025-09-03 22:29:37.181379,0.0007213114754099571,-0.0012868852459016879,-0.0003647540983587883,0.003020491803278693,-0.003499999999999998,0.018750107377976832,0.06629202060828435
2025-09-03 22:29:37.201548,0.0007213114754099571,-0.0012868852459016879,-0.0003647540983587883,0.003020491803278693,-0.003499999999999998,0.018750075319090467,0.06667019829594084
2025-09-03 22:29:37.221797,0.0007213114754099571,-0.0012868852459016879,-0.0003647540983587883,0.003020491803278693,-0.003499999999999998,0.018749989775291062,0.06704985803857678
2025-09-03 22:29:37.242045,0.0007213114754099571,-0.0012868852459016879,-0.0003647540983587883,0.003020491803278693,-0.003499999999999998,0.018749998801381517,0.06742950261791271
2025-09-03 22:29:37.262418,0.0007213114754099571,-0.0012868852459016879,-0.0003647540983587883,0.003020491803278693,-0.003499999999999998,0.01875000040774938,0.06781149393319362
2025-09-03 22:29:37.282416,0.0007213114754099571,-0.0012868852459016879,-0.0003647540983587883,0.003020491803278693,-0.003499999999999998,0.018749999995862222,0.06818644886043383
2025-09-03 22:29:37.302790,0.0007213114754099571,-0.0012868852459016879,-0.0003647540983587883,0.003020491803278693,-0.003499999999999998,0.01874999998865939,0.06856847141979151
2025-09-03 22:29:37.323038,0.0007213114754099571,-0.0012868852459016879,-0.0003647540983587883,0.003020491803278693,-0.003499999999999998,0.02437807985657744,0.0690620597903704
2025-09-03 22:29:37.343411,0.0007213114754099571,-0.0012868852459016879,-0.0003647540983587883,0.003020491803278693,-0.003499999999999998,0.05200768881845482,0.07061670565434595
2025-09-03 22:29:37.363411,0.0007213114754099571,-0.0012868852459016879,-0.0003647540983587883,0.003020491803278693,-0.003499999999999998,0.05347452963618349,0.07135276458205346
2025-09-03 22:29:37.383659,0.0007213114754099571,-0.0012868852459016879,-0.0003647540983587883,0.003020491803278693,-0.003499999999999998,0.04771271545585162,0.07242087670903388
2025-09-03 22:29:37.403978,0.0007213114754099571,-0.0012868852459016879,-0.0003647540983587883,0.003020491803278693,-0.003499999999999998,0.04550396355466729,0.0736494055094317
2025-09-03 22:29:37.424475,0.0007213114754099571,-0.0012868852459016879,-0.0003647540983587883,0.003020491803278693,-0.003499999999999998,0.050706840861320907,0.07457028639081975
2025-09-03 22:29:37.444597,0.0007213114754099571,-0.0012868852459016879,-0.0003647540983587883,0.003020491803278693,-0.003499999999999998,0.05298988889331259,0.07533245526650634
2025-09-03 22:29:37.464724,0.0007213114754099571,-0.0012868852459016879,-0.0003647540983587883,0.003020491803278693,-0.003499999999999998,0.04779605616884003,0.07641211249750697
2025-09-03 22:29:37.484972,0.0007213114754099571,-0.0012868852459016879,-0.0003647540983587883,0.003020491803278693,-0.003499999999999998,0.03988193370141384,0.07752263729600575
2025-09-03 22:29:37.505095,0.0007213114754099571,-0.0012868852459016879,-0.0003647540983587883,0.003020491803278693,-0.003499999999999998,0.02307426075082746,0.0773750423825627
2025-09-03 22:29:37.525469,0.0007213114754099571,-0.0012868852459016879,-0.0003647540983587883,0.003020491803278693,-0.003499999999999998,0.051523155453293126,0.07894827349744675
2025-09-03 22:29:37.545466,0.0007213114754099571,-0.0012868852459016879,-0.0003647540983587883,0.003020491803278693,-0.003499999999999998,0.053557945668316,0.07970240504845413
2025-09-03 22:29:37.565796,0.0007213114754099571,-0.0012868852459016879,-0.0003647540983587883,0.003020491803278693,-0.003499999999999998,0.04771875523327613,0.08077259151283477
2025-09-03 22:29:37.585962,0.0007213114754099571,-0.0012868852459016879,-0.0003647540983587883,0.003020491803278693,-0.003499999999999998,0.04550099120841114,0.08199404457971357
2025-09-03 22:29:37.606338,0.0007213114754099571,-0.0012868852459016879,-0.0003647540983587883,0.003020491803278693,-0.003499999999999998,0.05070694864704746,0.0829094234144644
2025-09-03 22:29:37.626586,0.0007213114754099571,-0.0012868852459016879,-0.00031862229626547533,0.003020491803278693,-0.003499999999999998,0.0529899642082655,0.08367924913758706
2025-09-03 22:29:37.646835,0.0007213114754099571,-0.0012868852459016879,-9.215009165188946e-05,0.003020491803278693,-0.003499999999999998,0.047796045932790666,0.08476537786461372
2025-09-03 22:29:37.666977,0.0007213114754099571,-0.0012868852459016879,-3.3995004165162914e-05,0.003020491803278693,-0.003499999999999998,0.039881932503988804,0.08587237499140367
2025-09-03 22:29:37.687396,0.0007213114754099571,-0.0012868852459016879,0.0001452492153632966,0.003020491803278693,-0.003499999999999998,0.01744618130340601,0.08561595135518167
2025-09-03 22:29:37.707383,0.0007213114754099571,-0.0012868852459016879,9.30361748831762e-05,0.003020491803278693,-0.003499999999999998,0.018265466630859248,0.08601057392858111
2025-09-03 22:29:37.727757,0.0007213114754099571,-0.0012868852459016879,-0.00013801747951508212,0.003020491803278693,-0.003499999999999998,0.0188334160207364,0.0864091080944733
2025-09-03 22:29:37.747757,0.0007213114754099571,-0.0012868852459016879,-0.0001955635823230822,0.003020491803278693,-0.003499999999999998,0.01875603977861846,0.08678196744227633
2025-09-03 22:29:37.768086,0.0007213114754099571,-0.0012868852459016879,-0.0003747336659320106,0.003020491803278693,-0.003499999999999998,0.01874702765395855,0.08716285369052494
2025-09-03 22:29:37.788379,0.0007213114754099571,-0.0012868852459016879,-0.0003686769732833213,0.003020491803278693,-0.003499999999999998,0.018750107785671752,0.08754345258342955
2025-09-03 22:29:37.808501,0.0007213114754099571,-0.0012868852459016879,-0.0003640953314296792,0.003020491803278693,-0.003499999999999998,0.018750075314951806,0.08792073617413192
2025-09-03 22:29:37.828818,0.0007213114754099571,-0.0012868852459016879,-0.0003647036280300233,0.003020491803278693,-0.003499999999999998,0.01874998976395221,0.08830168337256056
2025-09-03 22:29:37.848996,0.0007213114754099571,-0.0012868852459016879,-0.00036477783465834206,0.003020491803278693,-0.003499999999999998,0.02437807865795892,0.08879356901785873
2025-09-03 22:29:37.869371,0.0007213114754099571,-0.0012868852459016879,-0.00036475330202052523,0.003020491803278693,-0.003499999999999998,0.052007689226204266,0.090348328336782
2025-09-03 22:29:37.889624,0.0007213114754099571,-0.0012868852459016879,-0.0003647534908139347,0.003020491803278693,-0.003499999999999998,0.053474529632045804,0.09109876966727015
2025-09-03 22:29:37.909743,0.0007213114754099571,-0.0012868852459016879,-0.00036475417882566853,0.003020491803278693,-0.003499999999999998,0.0477127154445111,0.09216211713939501
2025-09-03 22:29:37.929991,0.0007213114754099571,-0.0012868852459016879,-0.0003647541082174448,0.003020491803278693,-0.003499999999999998,0.045503963555860644,0.09338903982437881
2025-09-03 22:29:37.950364,0.0007213114754099571,-0.0012868852459016879,-0.0003647540951095347,0.003020491803278693,-0.003499999999999998,0.05070684086153415,0.09430494339133326
2025-09-03 22:29:37.970366,0.0007213114754099571,-0.0012868852459016879,-0.0003186222962896093,0.003020491803278693,-0.003499999999999998,0.05298988889325805,0.09506225481620126
2025-09-03 22:29:37.990700,0.0007213114754099571,-0.0012868852459016879,-4.6018289649783534e-05,0.003020491803278693,-0.003499999999999998,0.047796056168839064,0.09615126670329999
2025-09-03 22:29:38.011062,0.0007213114754099571,-0.0012868852459016879,0.00023860900255107055,0.003020491803278693,-0.003499999999999998,0.039881933701415496,0.09726517833879314
2025-09-03 22:29:38.031427,0.0007213114754099571,-0.0012868852459016879,0.0004760083095586621,0.003020491803278693,-0.003499999999999998,0.01744618089544315,0.09700551845332422
2025-09-03 22:29:38.051426,0.0007213114754099571,-0.0012868852459016879,0.0006491712906981408,0.003020491803278693,-0.003499999999999998,0.01826546663505144,0.0974004054905703
2025-09-03 22:29:38.071508,0.0007213114754099571,-0.0012868852459016879,0.0006385086025270852,0.003020491803278693,-0.003499999999999998,0.018833416032077898,0.09779347811942675
2025-09-03 22:29:38.091804,0.0007213114754099571,-0.0012868852459016879,0.0005884043353278488,0.003020491803278693,-0.003499999999999998,0.018756039777423447,0.09817189425096404
2025-09-03 22:29:38.112302,0.0007213114754099571,-0.0012868852459016879,0.00031648344921919315,0.003020491803278693,-0.003499999999999998,0.01874702765374542,0.09855596740133662
2025-09-03 22:29:38.132426,0.0007213114754099571,-0.0012868852459016879,3.1905747300294305e-05,0.003020491803278693,-0.003499999999999998,0.018750107785726333,0.09893335707490453
2025-09-03 22:29:38.152673,0.0007213114754099571,-0.0012868852459016879,-0.00020551791338403966,0.003020491803278693,-0.003499999999999998,0.018750075314952777,0.09931300997010871
2025-09-03 22:29:38.172927,0.0007213114754099571,-0.0012868852459016879,-0.0003786800143783397,0.003020491803278693,-0.003499999999999998,0.02437806961933472,0.09980689809366769
2025-09-03 22:29:38.193297,0.0007213114754099571,-0.0012868852459016879,-0.0003680167088372652,0.003020491803278693,-0.003499999999999998,0.05200768762081653,0.10136127705880933
2025-09-03 22:29:38.213545,0.0007213114754099571,-0.0012868852459016879,-0.0003640443275404082,0.003020491803278693,-0.003499999999999998,0.05066049011650866,0.10205421794230887
2025-09-03 22:29:38.233542,0.0007213114754099571,-0.0012868852459016879,-0.0003647274579634068,0.003020491803278693,-0.003499999999999998,0.031083871042539533,0.10253032486518401
2025-09-03 22:29:38.253915,0.0007213114754099571,-0.0012868852459016879,-0.000364777044802611,0.003020491803278693,-0.003499999999999998,0.022513618869820902,0.10346026153245605
2025-09-03 22:29:38.274290,0.0007213114754099571,-0.0012868852459016879,-0.0003647526911673782,0.003020491803278693,-0.003499999999999998,0.002967794316348057,0.10285657966166711
2025-09-03 22:29:38.294287,0.0007213114754099571,-0.0012868852459016879,-0.0003647535714076853,0.003020491803278693,-0.003499999999999998,0.004888377479954797,0.10283128265073263
2025-09-03 22:29:38.314537,0.0007213114754099571,-0.0012868852459016879,-0.0003647541887674984,0.003020491803278693,-0.003499999999999998,0.0028549202822722108,0.10296211081155501
2025-09-03 22:29:38.334538,0.0007213114754099571,-0.0012868852459016879,-0.00036475410495666154,0.003020491803278693,-0.003499999999999998,0.0016361055554749795,0.10314347851652793
2025-09-03 22:29:38.354910,0.0007213114754099571,-0.0012868852459016879,-0.00036475409513236765,0.003020491803278693,-0.003499999999999998,0.004224000767945429,0.10317079258138773
2025-09-03 22:29:38.375281,0.0007213114754099571,-0.0012868852459016879,-0.00036475409847458435,0.003020491803278693,-0.003499999999999998,0.005370100599577694,0.1031295899271832
2025-09-03 22:29:38.395280,0.0007213114754099571,-0.0012868852459016879,-0.00036475409844065516,0.003020491803278693,-0.003499999999999998,0.002773140462247925,0.10324470651360755
2025-09-03 22:29:38.415777,0.0007213114754099571,-0.0012868852459016879,-0.00036475409834770114,0.003020491803278693,-0.003499999999999998,0.0016299916396462434,0.10343006476668681
2025-09-03 22:29:38.436026,0.0007213114754099571,-0.0012868852459016879,-0.0003647540983574831,0.003020491803278693,-0.003499999999999998,0.00985501291280037,0.10357060620241233
2025-09-03 22:29:38.456274,0.0007213114754099571,-0.0012868852459016879,-0.000364754098359231,0.003020491803278693,-0.003499999999999998,0.04144172748763849,0.10475401127927918
2025-09-03 22:29:38.476398,0.0007213114754099571,-0.0012868852459016879,-0.0003186222962654711,0.003020491803278693,-0.003499999999999998,0.05412643978368785,0.10581739535116111
2025-09-03 22:29:38.496648,0.0007213114754099571,-0.0012868852459016879,-4.6018289558564184e-05,0.003020491803278693,-0.003499999999999998,0.04795498192311156,0.10687605139112735
2025-09-03 22:29:38.516895,0.0007213114754099571,-0.0012868852459016879,0.00019247720044842176,0.003020491803278693,-0.003499999999999998,0.03983417568650466,0.10797939328249598
2025-09-03 22:29:38.537267,0.0007213114754099571,-0.0012868852459016879,0.00020340430285002288,0.003020491803278693,-0.003499999999999998,0.017446132160251128,0.10772293847724115
2025-09-03 22:29:38.557266,0.0007213114754099571,-0.0012868852459016879,0.00036454399859826164,0.003020491803278693,-0.003499999999999998,0.01826684542955054,0.10811782871127439
2025-09-03 22:29:38.577649,0.0007213114754099571,-0.0012868852459016879,0.0004011092955119083,0.003020491803278693,-0.003499999999999998,0.018833286820016525,0.10851651281048244
2025-09-03 22:29:38.597843,0.0007213114754099571,-0.0012868852459016879,0.00041524135418618337,0.003020491803278693,-0.003499999999999998,0.018756012344684787,0.10889301477153218
2025-09-03 22:29:38.618264,0.0007213114754099571,-0.0012868852459016879,0.0003271461373906739,0.003020491803278693,-0.003499999999999998,0.01874703397038885,0.10927563993076372
2025-09-03 22:29:38.638266,0.0007213114754099571,-0.0012868852459016879,3.587821240624043e-05,0.003020491803278693,-0.003499999999999998,0.018750107976688517,0.10965075844300265
2025-09-03 22:29:38.658510,0.0007213114754099571,-0.0012868852459016879,-0.00020620103398229735,0.003020491803278693,-0.003499999999999998,0.018750075115109167,0.11003032639923133
2025-09-03 22:29:38.678770,0.0007213114754099571,-0.0012868852459016879,-0.0003787296045597527,0.003020491803278693,-0.003499999999999998,0.01874998977738719,0.11041036165679573
2025-09-03 22:29:38.699013,0.0007213114754099571,-0.0012868852459016879,-0.00036799235516811685,0.003020491803278693,-0.003499999999999998,0.024378078662436433,0.11090371778475198
2025-09-03 22:29:38.719384,0.0007213114754099571,-0.0012868852459016879,-0.00036404520768776034,0.003020491803278693,-0.003499999999999998,0.05200768922539352,0.11245943692121758
2025-09-03 22:29:38.739629,0.0007213114754099571,-0.0012868852459016879,-0.0003647280753330015,0.003020491803278693,-0.003499999999999998,0.05347452963199377,0.11320917196468726
2025-09-03 22:29:38.759762,0.0007213114754099571,-0.0012868852459016879,-0.0003647769609935221,0.003020491803278693,-0.003499999999999998,0.047712715444539366,0.11427315750157542
2025-09-03 22:29:38.780002,0.0007213114754099571,-0.0012868852459016879,-0.00036475268134263724,0.003020491803278693,-0.003499999999999998,0.045503963555859464,0.11549948922029228
2025-09-03 22:29:38.800250,0.0007213114754099571,-0.0012868852459016879,-0.0003647535747498941,0.003020491803278693,-0.003499999999999998,0.05070684086153346,0.11640897473276542
2025-09-03 22:29:38.820496,0.0007213114754099571,-0.0012868852459016879,-0.00036475418873358297,0.003020491803278693,-0.003499999999999998,0.052989888893258154,0.1171794971615806
2025-09-03 22:29:38.840744,0.0007213114754099571,-0.0012868852459016879,-0.00036475410486370643,0.003020491803278693,-0.003499999999999998,0.04779605616883907,0.11826501424301888
2025-09-03 22:29:38.861118,0.0007213114754099571,-0.0012868852459016879,-0.00036475409514214916,0.003020491803278693,-0.003499999999999998,0.039881933701415496,0.11938043397816553
2025-09-03 22:29:38.881368,0.0007213114754099571,-0.0012868852459016879,-0.0003647540984763323,0.003020491803278693,-0.003499999999999998,0.01744618089544315,0.11911807596062096
2025-09-03 22:29:38.901614,0.0007213114754099571,-0.0012868852459016879,-0.0003647540984402081,0.003020491803278693,-0.003499999999999998,0.01826546663505144,0.11951740272437966
2025-09-03 22:29:38.921863,0.0007213114754099571,-0.0012868852459016879,-0.00036475409834769323,0.003020491803278693,-0.003499999999999998,0.018833416032077898,0.11991364372192206
2025-09-03 22:29:38.942236,0.0007213114754099571,-0.0012868852459016879,-0.0003647540983574967,0.003020491803278693,-0.003499999999999998,0.018756039777423447,0.12029351931513504
2025-09-03 22:29:38.962235,0.0007213114754099571,-0.0012868852459016879,-0.00036475409835922995,0.003020491803278693,-0.003499999999999998,0.01874702765374542,0.12066822240783598
2025-09-03 22:29:38.982485,0.0007213114754099571,-0.0012868852459016879,-0.00036475409835878375,0.003020491803278693,-0.003499999999999998,0.018750107785726333,0.12104798963663008
2025-09-03 22:29:39.002937,0.0007213114754099571,-0.0012868852459016879,-0.0003647540983587761,0.003020491803278693,-0.003499999999999998,0.018750075314952777,0.12143147364023052
2025-09-03 22:29:39.023232,0.0007213114754099571,-0.0012868852459016879,-0.00036475409835878966,0.003020491803278693,-0.003499999999999998,0.018749989763950543,0.12181201403166024
2025-09-03 22:29:39.043355,0.0007213114754099571,-0.0012868852459016879,-0.0003647540983587887,0.003020491803278693,-0.003499999999999998,0.018749998802574868,0.12218932062103612
2025-09-03 22:29:39.063603,0.0007213114754099571,-0.0012868852459016879,-0.0003647540983587883,0.003020491803278693,-0.003499999999999998,0.018750000407962642,0.12256894265169872
2025-09-03 22:29:39.083725,0.0007213114754099571,-0.0012868852459016879,-0.0003647540983587883,0.003020491803278693,-0.003499999999999998,0.018749999995807683,0.12294625345256761
2025-09-03 22:29:39.104223,0.0007213114754099571,-0.0012868852459016879,-0.0003647540983587883,0.003020491803278693,-0.003499999999999998,0.01874999998865842,0.12333058718202776
2025-09-03 22:29:39.124221,0.0007213114754099571,-0.0012868852459016879,-0.0003647540983587883,0.003020491803278693,-0.003499999999999998,0.018750000001194925,0.12370554212127818
2025-09-03 22:29:39.144596,0.0007213114754099571,-0.0012868852459016879,-0.0003647540983587883,0.003020491803278693,-0.003499999999999998,0.01875000000021304,0.1240875736215917
2025-09-03 22:29:39.164843,0.0007213114754099571,-0.0012868852459016879,-0.0003647540983587883,0.003020491803278693,-0.003499999999999998,0.018749999999945335,0.12446721348555169
2025-09-03 22:29:39.185260,0.0007213114754099571,-0.0012868852459016879,-0.0003647540983587883,0.003020491803278693,-0.003499999999999998,0.018749999999998945,0.12485008541138404
2025-09-03 22:29:39.205346,0.0007213114754099571,-0.0012868852459016879,-0.0003647540983587883,0.003020491803278693,-0.003499999999999998,0.01875000000000157,0.12522665861637833
2025-09-03 22:29:39.225585,0.0007213114754099571,-0.0012868852459016879,-0.00031862229626547533,0.003020491803278693,-0.003499999999999998,0.01874999999999978,0.12560612860710857
2025-09-03 22:29:39.245845,0.0007213114754099571,-0.0012868852459016879,-4.601828955857649e-05,0.003020491803278693,-0.003499999999999998,0.01874999999999987,0.1259859964588427
2025-09-03 22:29:39.265965,0.0007213114754099571,-0.0012868852459016879,0.00023860900254173606,0.003020491803278693,-0.003499999999999998,0.018749999999999916,0.12636323574574226
2025-09-03 22:29:39.286338,0.0007213114754099571,-0.0012868852459016879,0.0004760083095569221,0.003020491803278693,-0.003499999999999998,0.018749999999999916,0.12674523595364323
2025-09-03 22:29:39.306460,0.0007213114754099571,-0.0012868852459016879,0.0006491712906985742,0.003020491803278693,-0.003499999999999998,0.01593596007230783,0.127065907757619
2025-09-03 22:29:39.326835,0.0007213114754099571,-0.0012868852459016879,0.0006385086025270944,0.003020491803278693,-0.003499999999999998,0.0021211555908790926,0.126861582743094
2025-09-03 22:29:39.346829,0.0007213114754099571,-0.0012868852459016879,0.0006345361374211486,0.003020491803278693,-0.003499999999999998,0.001387735181880863,0.12705554147073053
2025-09-03 22:29:39.367324,0.0007213114754099571,-0.0012868852459016879,0.0005890874559260932,0.003020491803278693,-0.003499999999999998,0.004268642272073578,0.12709188692662368
2025-09-03 22:29:39.387322,0.0007213114754099571,-0.0012868852459016879,0.0003165330394006071,0.003020491803278693,-0.003499999999999998,0.00818705815035915,0.12710336113716636
2025-09-03 22:29:39.407571,0.0007213114754099571,-0.0012868852459016879,3.188139363114627e-05,0.003020491803278693,-0.003499999999999998,0.019400423978460174,0.1278019512862321
2025-09-03 22:29:39.427817,0.0007213114754099571,-0.0012868852459016879,-0.00020551703323668763,0.003020491803278693,-0.003499999999999998,0.018992320371462604,0.1281718196653943
2025-09-03 22:29:39.448315,0.0007213114754099571,-0.0012868852459016879,-0.00037867939700874493,0.003020491803278693,-0.003499999999999998,0.015894289715814112,0.12849020330493857
2025-09-03 22:29:39.468158,0.0007213114754099571,-0.0012868852459016879,-0.0003680167926463541,0.003020491803278693,-0.003499999999999998,-0.0006959093378791877,0.12822839673081582
2025-09-03 22:29:39.488691,0.0007213114754099571,-0.0012868852459016879,-0.0003640443373651492,0.003020491803278693,-0.003499999999999998,-0.015239623653421911,0.12783467354256534
2025-09-03 22:29:39.508686,0.0007213114754099571,-0.0012868852459016879,-0.000364727454621198,0.003020491803278693,-0.003499999999999998,-0.01309367623503395,0.12768723161552642
2025-09-03 22:29:39.529191,0.0007213114754099571,-0.0012868852459016879,-0.00036477704483652647,0.003020491803278693,-0.003499999999999998,-0.009108377164804551,0.12729646695902078
2025-09-03 22:29:39.549189,0.0007213114754099571,-0.0012868852459016879,-0.00036475269126033324,0.003020491803278693,-0.003499999999999998,-0.010605397095639074,0.12699045052270305
2025-09-03 22:29:39.569437,0.0007213114754099571,-0.0012868852459016879,-0.0003647535713979037,0.003020491803278693,-0.003499999999999998,-0.014348364278007796,0.12691021325413362
2025-09-03 22:29:39.589562,0.0007213114754099571,-0.0012868852459016879,-0.00036475418876575044,0.003020491803278693,-0.003499999999999998,-0.012892972734951224,0.12674376614732555
2025-09-03 22:29:39.609810,0.0007213114754099571,-0.0012868852459016879,-0.0003186223028637955,0.003020491803278693,-0.003499999999999998,-0.006338994933058248,0.12640590446892824
2025-09-03 22:29:39.630183,0.0007213114754099571,-0.0012868852459016879,-4.601828633216366e-05,0.003020491803278693,-0.003499999999999998,0.00883594270724153,0.12674126302597072
2025-09-03 22:29:39.650432,0.0007213114754099571,-0.0012868852459016879,0.00023860900242595378,0.003020491803278693,-0.003499999999999998,0.019644176234155767,0.12743171094022018
2025-09-03 22:29:39.670678,0.0007213114754099571,-0.0012868852459016879,0.00047600830947505424,0.003020491803278693,-0.003499999999999998,0.018950558666328506,0.12779317178159116
2025-09-03 22:29:39.690806,0.0007213114754099571,-0.0012868852459016879,0.0006491712907096609,0.003020491803278693,-0.003499999999999998,0.018705272095276417,0.12816339670465676
2025-09-03 22:29:39.711178,0.0007213114754099571,-0.0012868852459016879,0.0006385086025283998,0.003020491803278693,-0.003499999999999998,0.01874846628441587,0.12854653514349934
2025-09-03 22:29:39.731302,0.0007213114754099571,-0.0012868852459016879,0.0005884043353273928,0.003020491803278693,-0.003499999999999998,0.01875143228026311,0.12892396609601417
2025-09-03 22:29:39.751549,0.0007213114754099571,-0.0012868852459016879,0.00031648344921919846,0.003020491803278693,-0.003499999999999998,0.01874990844966033,0.12930354463614926
2025-09-03 22:29:39.771922,0.0007213114754099571,-0.0012868852459016879,3.19057473003069e-05,0.003020491803278693,-0.003499999999999998,0.018749967460548175,0.12968554626775375
2025-09-03 22:29:39.792170,0.0007213114754099571,-0.0012868852459016879,-0.00020551791338404104,0.003020491803278693,-0.003499999999999998,0.018750005716737107,0.13006519171973013
2025-09-03 22:29:39.812294,0.0007213114754099571,-0.0012868852459016879,-0.0003786800143783399,0.003020491803278693,-0.003499999999999998,0.018750000394731063,0.13044251132557805
2025-09-03 22:29:39.832543,0.0007213114754099571,-0.0012868852459016879,-0.0003680167088372651,0.003020491803278693,-0.003499999999999998,0.01874999979811466,0.13082217352308395
2025-09-03 22:29:39.852665,0.0007213114754099571,-0.0012868852459016879,-0.0003640443275404082,0.003020491803278693,-0.003499999999999998,0.01875000000776677,0.13119946198975505
2025-09-03 22:29:39.872913,0.0007213114754099571,-0.0012868852459016879,-0.0003647274579634068,0.003020491803278693,-0.003499999999999998,0.01875000000507315,0.13157910185368354
2025-09-03 22:29:39.893163,0.0007213114754099571,-0.0012868852459016879,-0.000364777044802611,0.003020491803278693,-0.003499999999999998,0.018749999999295837,0.13195879983201292
2025-09-03 22:29:39.913412,0.0007213114754099571,-0.0012868852459016879,-0.0003647526911673782,0.003020491803278693,-0.003499999999999998,0.018749999999920632,0.13233846651808792
2025-09-03 22:29:39.933535,0.0007213114754099571,-0.0012868852459016879,-0.0003647535714076853,0.003020491803278693,-0.003499999999999998,0.01875000000002768,0.13271580415265458
2025-09-03 22:29:39.953783,0.0007213114754099571,-0.0012868852459016879,-0.0003647541887674984,0.003020491803278693,-0.003499999999999998,0.01874999999999956,0.13309541272418315
2025-09-03 22:29:39.974154,0.0007213114754099571,-0.0012868852459016879,-0.00036475410495666154,0.003020491803278693,-0.003499999999999998,0.018749999999999142,0.13347739058034236
2025-09-03 22:29:39.994279,0.0007213114754099571,-0.0012868852459016879,-0.00036475409513236765,0.003020491803278693,-0.003499999999999998,0.018749999999999996,0.13385471927420914
2025-09-03 22:29:40.014527,0.0007213114754099571,-0.0012868852459016879,-0.00031862229638127137,0.003020491803278693,-0.003499999999999998,0.018749999999999923,0.13423438596026718
2025-09-03 22:29:40.034776,0.0007213114754099571,-0.0012868852459016879,-4.6018289640443295e-05,0.003020491803278693,-0.003499999999999998,0.018749999999999906,0.13461404817597686
2025-09-03 22:29:40.055149,0.0007213114754099571,-0.0012868852459016879,0.00023860900255282327,0.003020491803278693,-0.003499999999999998,0.018749999999999913,0.1349960439135295
2025-09-03 22:29:40.075155,0.0007213114754099571,-0.0012868852459016879,0.00047600830955822735,0.003020491803278693,-0.003499999999999998,0.018749999999999913,0.1353711508442622
2025-09-03 22:29:40.095414,0.0007213114754099571,-0.0012868852459016879,0.0006491712906981314,0.003020491803278693,-0.003499999999999998,0.018749999999999913,0.1357510812808734
2025-09-03 22:29:40.115783,0.0007213114754099571,-0.0012868852459016879,0.0005923768004337857,0.003020491803278693,-0.003499999999999998,0.018749999999999913,0.13613295184867202
2025-09-03 22:29:40.135781,0.0007213114754099571,-0.0012868852459016879,0.0003158003286209489,0.003020491803278693,-0.003499999999999998,0.018749999999999913,0.13650789784686385
2025-09-03 22:29:40.156157,0.0007213114754099571,-0.0012868852459016879,3.185615711888033e-05,0.003020491803278693,-0.003499999999999998,0.018749999999999913,0.1368899338175517
2025-09-03 22:29:40.176401,0.0007213114754099571,-0.0012868852459016879,-0.00020549355971489163,0.003020491803278693,-0.003499999999999998,0.018749999999999913,0.13726952450768767
2025-09-03 22:29:40.196528,0.0007213114754099571,-0.0012868852459016879,-0.0003786808945256917,0.003020491803278693,-0.003499999999999998,0.018749999999999913,0.13764695154921827
2025-09-03 22:29:40.216773,0.0007213114754099571,-0.0012868852459016879,-0.0003680173262068598,0.003020491803278693,-0.003499999999999998,0.018749999999999913,0.1380264975358706
2025-09-03 22:29:40.237148,0.0007213114754099571,-0.0012868852459016879,-0.0003640442437313193,0.003020491803278693,-0.003499999999999998,0.018749999999999913,0.13840852456586175
2025-09-03 22:29:40.257272,0.0007213114754099571,-0.0012868852459016879,-0.00036472744813866584,0.003020491803278693,-0.003499999999999998,0.018749999999999913,0.138785835378335
2025-09-03 22:29:40.277395,0.0007213114754099571,-0.0012868852459016879,-0.0003647770481448198,0.003020491803278693,-0.003499999999999998,0.018749999999999913,0.13916314619080827
2025-09-03 22:29:40.297640,0.0007213114754099571,-0.0012868852459016879,-0.0003647526911334627,0.003020491803278693,-0.003499999999999998,0.018749999999999913,0.1395427502919893
2025-09-03 22:29:40.318053,0.0007213114754099571,-0.0012868852459016879,-0.0003647535713147302,0.003020491803278693,-0.003499999999999998,0.02437807985538409,0.1400403723200965
2025-09-03 22:29:40.338182,0.0007213114754099571,-0.0012868852459016879,-0.00036475418877728,0.003020491803278693,-0.003499999999999998,0.05200768881824156,0.14158368124520637
2025-09-03 22:29:40.358432,0.0007213114754099571,-0.0012868852459016879,-0.00036475410495840954,0.003020491803278693,-0.003499999999999998,0.05347452963623802,0.14233327090756218
2025-09-03 22:29:40.378673,0.0007213114754099571,-0.0012868852459016879,-0.00036475409513192064,0.003020491803278693,-0.003499999999999998,0.04771271545585261,0.14340125683071536
2025-09-03 22:29:40.398924,0.0007213114754099571,-0.0012868852459016879,-0.0003647540984745763,0.003020491803278693,-0.003499999999999998,0.03987588369928147,0.14451331055068975
2025-09-03 22:29:40.419171,0.0007213114754099571,-0.0012868852459016879,-0.0003647540984406688,0.003020491803278693,-0.003499999999999998,0.01744915204307938,0.14425284068483477
2025-09-03 22:29:40.439294,0.0007213114754099571,-0.0012868852459016879,-0.0003647540983477001,0.003020491803278693,-0.003499999999999998,0.018265359257074513,0.14464975918694123
2025-09-03 22:29:40.459544,0.0007213114754099571,-0.0012868852459016879,-0.00036475409835748276,0.003020491803278693,-0.003499999999999998,0.018833340712987336,0.14504597746844475
2025-09-03 22:29:40.479791,0.0007213114754099571,-0.0012868852459016879,-0.0003647540983592312,0.003020491803278693,-0.003499999999999998,0.018756050002132287,0.14542347678263043
2025-09-03 22:29:40.500165,0.0007213114754099571,-0.0012868852459016879,-0.00036475409835878397,0.003020491803278693,-0.003499999999999998,0.024375108707747988,0.14591987669364576
2025-09-03 22:29:40.520288,0.0007213114754099571,-0.0012868852459016879,-0.0003647540983587761,0.003020491803278693,-0.003499999999999998,0.052007796196218516,0.14746378136013322
2025-09-03 22:29:40.540543,0.0007213114754099571,-0.0012868852459016879,-0.00036475409835878966,0.003020491803278693,-0.003499999999999998,0.05347460495532857,0.14821395749026123
2025-09-03 22:29:40.560736,0.0007213114754099571,-0.0012868852459016879,-0.0003647540983587887,0.003020491803278693,-0.003499999999999998,0.04771270523114375,0.14927964675860048
2025-09-03 22:29:40.581107,0.0007213114754099571,-0.0012868852459016879,-0.0003647540983587883,0.003020491803278693,-0.003499999999999998,0.045503962356047235,0.15051107636948635
2025-09-03 22:29:40.601106,0.0007213114754099571,-0.0012868852459016879,-0.0003647540983587883,0.003020491803278693,-0.003499999999999998,0.050706841269070504,0.1514071388226415
2025-09-03 22:29:40.621355,0.0007213114754099571,-0.0012868852459016879,-0.0003647540983587883,0.003020491803278693,-0.003499999999999998,0.05298988888917494,0.1521770910754063
2025-09-03 22:29:40.641606,0.0007213114754099571,-0.0012868852459016879,-0.0003647540983587883,0.003020491803278693,-0.003499999999999998,0.0477960561574995,0.15326175196513736
2025-09-03 22:29:40.661978,0.0007213114754099571,-0.0012868852459016879,-0.0003647540983587883,0.003020491803278693,-0.003499999999999998,0.04551001355799138,0.1544905979346293
2025-09-03 22:29:40.682226,0.0007213114754099571,-0.0012868852459016879,-0.0003647540983587883,0.003020491803278693,-0.003499999999999998,0.050703869713898196,0.15539878780354408
2025-09-03 22:29:40.702528,0.0007213114754099571,-0.0012868852459016879,-0.0003647540983587883,0.003020491803278693,-0.003499999999999998,0.052989996271235046,0.1561708568845876
2025-09-03 22:29:40.722774,0.0007213114754099571,-0.0012868852459016879,-0.0003647540983587883,0.003020491803278693,-0.003499999999999998,0.04779613148792961,0.15725615627598208
2025-09-03 22:29:40.743145,0.0007213114754099571,-0.0012868852459016879,-0.0003647540983587883,0.003020491803278693,-0.003499999999999998,0.04551000333209083,0.15848655440574266
2025-09-03 22:29:40.763145,0.0007213114754099571,-0.0012868852459016879,-0.0003647540983587883,0.003020491803278693,-0.003499999999999998,0.05070386851506641,0.1593823593562962
2025-09-03 22:29:40.783393,0.0007213114754099571,-0.0012868852459016879,-0.0003647540983587883,0.003020491803278693,-0.003499999999999998,0.05298999667903902,0.16015209897040836
2025-09-03 22:29:40.803642,0.0007213114754099571,-0.0012868852459016879,-0.0003647540983587883,0.003020491803278693,-0.003499999999999998,0.0477961314837929,0.16123668041014239
2025-09-03 22:29:40.824148,0.0007213114754099571,-0.0012868852459016879,-0.0003647540983587883,0.003020491803278693,-0.003499999999999998,0.039881923465364476,0.1623561124509518
2025-09-03 22:29:40.844214,0.0007213114754099571,-0.0012868852459016879,-0.0003647540983587883,0.003020491803278693,-0.003499999999999998,0.017446179698018243,0.16208873717403982
2025-09-03 22:29:40.864335,0.0007213114754099571,-0.0012868852459016879,-0.0003647540983587883,0.003020491803278693,-0.003499999999999998,0.018265467043014197,0.16248568824562196
2025-09-03 22:29:40.884585,0.0007213114754099571,-0.0012868852459016879,-0.00031862229626547533,0.003020491803278693,-0.003499999999999998,0.018833416027885665,0.16288188350537347
2025-09-03 22:29:40.904707,0.0007213114754099571,-0.0012868852459016879,-4.601828955857649e-05,0.003020491803278693,-0.003499999999999998,0.01875603976608196,0.16325704969432328
2025-09-03 22:29:40.925081,0.0007213114754099571,-0.0012868852459016879,0.00023860900254173606,0.003020491803278693,-0.003499999999999998,0.024375107510324612,0.16375344449435744
2025-09-03 22:29:40.945206,0.0007213114754099571,-0.0012868852459016879,0.0004760083095569221,0.003020491803278693,-0.003499999999999998,0.05200779660418112,0.16529649444711136
2025-09-03 22:29:40.965327,0.0007213114754099571,-0.0012868852459016879,0.0006491712906985742,0.003020491803278693,-0.003499999999999998,0.05347460495113632,0.16604017358003073
2025-09-03 22:29:40.985577,0.0007213114754099571,-0.0012868852459016879,0.0006385086025270944,0.003020491803278693,-0.003499999999999998,0.04771270521980227,0.16710796827914745
2025-09-03 22:29:41.005830,0.0007213114754099571,-0.0012868852459016879,0.0005884043353278356,0.003020491803278693,-0.003499999999999998,0.03987588250185807,0.16821915172880503
2025-09-03 22:29:41.026200,0.0007213114754099571,-0.0012868852459016879,0.0003164834492191942,0.003020491803278693,-0.003499999999999998,0.01744915245104198,0.16796152769907802
2025-09-03 22:29:41.046323,0.0007213114754099571,-0.0012868852459016879,3.190574730029456e-05,0.003020491803278693,-0.003499999999999998,0.01826535925288225,0.16835854609123674
2025-09-03 22:29:41.066571,0.0007213114754099571,-0.0012868852459016879,-0.00020551791338403974,0.003020491803278693,-0.003499999999999998,0.018833340701645856,0.16875476109862497
2025-09-03 22:29:41.086821,0.0007213114754099571,-0.0012868852459016879,-0.0003786800143783397,0.003020491803278693,-0.003499999999999998,0.01875605000332731,0.1691323341604009
2025-09-03 22:29:41.107066,0.0007213114754099571,-0.0012868852459016879,-0.0003680167088372652,0.003020491803278693,-0.003499999999999998,0.024375108707961127,0.16962558424422813
2025-09-03 22:29:41.127192,0.0007213114754099571,-0.0012868852459016879,-0.00031791252544709523,0.003020491803278693,-0.003499999999999998,0.05200779619616394,0.17116859994253303
2025-09-03 22:29:41.147448,0.0007213114754099571,-0.0012868852459016879,-4.5991649163194866e-05,0.003020491803278693,-0.003499999999999998,0.05347460495532762,0.17191983634492883
2025-09-03 22:29:41.167697,0.0007213114754099571,-0.0012868852459016879,0.00023858605609791342,0.003020491803278693,-0.003499999999999998,0.04771270523114541,0.17298854103818267
2025-09-03 22:29:41.188071,0.0007213114754099571,-0.0012868852459016879,0.00047600971674833224,0.003020491803278693,-0.003499999999999998,0.039875882500662936,0.17410555832233843
2025-09-03 22:29:41.208198,0.0007213114754099571,-0.0012868852459016879,0.0006491718176496772,0.003020491803278693,-0.003499999999999998,0.01744915245082881,0.17384129093276182
2025-09-03 22:29:41.228447,0.0007213114754099571,-0.0012868852459016879,0.0006385085121183842,0.003020491803278693,-0.003499999999999998,0.018265359252936837,0.1742404520227752
2025-09-03 22:29:41.248693,0.0007213114754099571,-0.0012868852459016879,0.0006345361308232754,0.003020491803278693,-0.003499999999999998,0.01883334070164682,0.17463660377107565
2025-09-03 22:29:41.269064,0.0007213114754099571,-0.0012868852459016879,0.0005890874591525138,0.003020491803278693,-0.003499999999999998,0.018756050003325645,0.17501642169775533
2025-09-03 22:29:41.289065,0.0007213114754099571,-0.0012868852459016879,0.0003165330392848112,0.003020491803278693,-0.003499999999999998,0.01874702885257708,0.17539118713867455
2025-09-03 22:29:41.309314,0.0007213114754099571,-0.0012868852459016879,3.188139354927945e-05,0.003020491803278693,-0.003499999999999998,0.018750107377922327,0.1757709230255882
2025-09-03 22:29:41.329562,0.0007213114754099571,-0.0012868852459016879,-0.00020551703322560042,0.003020491803278693,-0.003499999999999998,0.018750075319089492,0.17615057146648513
2025-09-03 22:29:41.350081,0.0007213114754099571,-0.0012868852459016879,-0.0003786793970074397,0.003020491803278693,-0.003499999999999998,0.018749989775292727,0.17653530952263288
2025-09-03 22:29:41.370056,0.0007213114754099571,-0.0012868852459016879,-0.0003680167926467968,0.003020491803278693,-0.003499999999999998,0.02437807865676556,0.17702226062272292
2025-09-03 22:29:41.390306,0.0007213114754099571,-0.0012868852459016879,-0.00036404433736514477,0.003020491803278693,-0.003499999999999998,0.052007689225990986,0.1785715413618976
2025-09-03 22:29:41.410430,0.0007213114754099571,-0.0012868852459016879,-0.0003647274546211856,0.003020491803278693,-0.003499999999999998,0.05347452963210034,0.179316000931745
2025-09-03 22:29:41.430678,0.0007213114754099571,-0.0012868852459016879,-0.00036477704483652777,0.003020491803278693,-0.003499999999999998,0.04771271544451207,0.1803850150572067
2025-09-03 22:29:41.451051,0.0007213114754099571,-0.0012868852459016879,-0.00036475269126033346,0.003020491803278693,-0.003499999999999998,0.039875883700474804,0.1815016605534191
2025-09-03 22:29:41.471174,0.0007213114754099571,-0.0012868852459016879,-0.0003647535713979037,0.003020491803278693,-0.003499999999999998,0.01744915204329264,0.181238142665782
2025-09-03 22:29:41.491297,0.0007213114754099571,-0.0012868852459016879,-0.00036475418876575044,0.003020491803278693,-0.003499999999999998,0.018265359257019973,0.18163500787629513
2025-09-03 22:29:41.511590,0.0007213114754099571,-0.0012868852459016879,-0.0003647541049571085,0.003020491803278693,-0.003499999999999998,0.01883334071298637,0.18203203172453145
2025-09-03 22:29:41.532084,0.0007213114754099571,-0.0012868852459016879,-0.0003647540951323756,0.003020491803278693,-0.003499999999999998,0.018756050002133956,0.18241415942742004
2025-09-03 22:29:41.552082,0.0007213114754099571,-0.0012868852459016879,-0.0003647540984745707,0.003020491803278693,-0.003499999999999998,0.024375108707747856,0.18290139357541613
2025-09-03 22:29:41.572334,0.0007213114754099571,-0.0012868852459016879,-0.00036475409844065625,0.003020491803278693,-0.003499999999999998,0.05200779619621849,0.18445124809999403
2025-09-03 22:29:41.592576,0.0007213114754099571,-0.0012868852459016879,-0.0003647540983477016,0.003020491803278693,-0.003499999999999998,0.05347460495532858,0.18520199307305887
2025-09-03 22:29:41.613078,0.0007213114754099571,-0.0012868852459016879,-0.00036475409835748303,0.003020491803278693,-0.003499999999999998,0.047712705231143744,0.1862836489037497
2025-09-03 22:29:41.633077,0.0007213114754099571,-0.0012868852459016879,-0.0003647540983592311,0.003020491803278693,-0.003499999999999998,0.03987588250066307,0.18738683605392398
2025-09-03 22:29:41.653449,0.0007213114754099571,-0.0012868852459016879,-0.000364754098358784,0.003020491803278693,-0.003499999999999998,0.017449152450828856,0.18712922120015396
2025-09-03 22:29:41.673453,0.0007213114754099571,-0.0012868852459016879,-0.0003647540983587761,0.003020491803278693,-0.003499999999999998,0.01826535925293683,0.18752397584014469
2025-09-03 22:29:41.693827,0.0007213114754099571,-0.0012868852459016879,-0.00036475409835878966,0.003020491803278693,-0.003499999999999998,0.01883334070164682,0.18792247441014495
2025-09-03 22:29:41.714072,0.0007213114754099571,-0.0012868852459016879,-0.0003647540983587887,0.003020491803278693,-0.003499999999999998,0.01875605000332565,0.18830001396203327
2025-09-03 22:29:41.734195,0.0007213114754099571,-0.0012868852459016879,-0.0003647540983587883,0.003020491803278693,-0.003499999999999998,0.018747028852577077,0.18867697914360837
2025-09-03 22:29:41.754442,0.0007213114754099571,-0.0012868852459016879,-0.0003647540983587883,0.003020491803278693,-0.003499999999999998,0.018750107377922327,0.18905669729953492
2025-09-03 22:29:41.774694,0.0007213114754099571,-0.0012868852459016879,-0.0003647540983587883,0.003020491803278693,-0.003499999999999998,0.018750075319089492,0.18943643514382846
2025-09-03 22:29:41.795062,0.0007213114754099571,-0.0012868852459016879,-0.0003647540983587883,0.003020491803278693,-0.003499999999999998,0.018749989775292727,0.1898183255864935
2025-09-03 22:29:41.815062,0.0007213114754099571,-0.0012868852459016879,-0.0003647540983587883,0.003020491803278693,-0.003499999999999998,0.018749998801381382,0.19019332547546167
2025-09-03 22:29:41.835312,0.0007213114754099571,-0.0012868852459016879,-0.0003647540983587883,0.003020491803278693,-0.003499999999999998,0.018750000407749337,0.1905729966798421
2025-09-03 22:29:41.855685,0.0007213114754099571,-0.0012868852459016879,-0.0003647540983587883,0.003020491803278693,-0.003499999999999998,0.01874999999586223,0.19095498346511627
2025-09-03 22:29:41.876057,0.0007213114754099571,-0.0012868852459016879,-0.0003647540983587883,0.003020491803278693,-0.003499999999999998,0.018749999988659387,0.19133697026168975
2025-09-03 22:29:41.896055,0.0007213114754099571,-0.0012868852459016879,-0.0003647540983587883,0.003020491803278693,-0.003499999999999998,0.024378079856577438,0.19182449652106187
2025-09-03 22:29:41.916305,0.0007213114754099571,-0.0012868852459016879,-0.0003647540983587883,0.003020491803278693,-0.003499999999999998,0.05200768881845483,0.19337387169555237
2025-09-03 22:29:41.936552,0.0007213114754099571,-0.0012868852459016879,-0.0003647540983587883,0.003020491803278693,-0.003499999999999998,0.05347452963618349,0.19412550388477018
2025-09-03 22:29:41.956677,0.0007213114754099571,-0.0012868852459016879,-0.0003647540983587883,0.003020491803278693,-0.003499999999999998,0.04771271545585162,0.19518922496667504
2025-09-03 22:29:41.977081,0.0007213114754099571,-0.0012868852459016879,-0.0003647540983587883,0.003020491803278693,-0.003499999999999998,0.03987588369928312,0.196307733177932
2025-09-03 22:29:41.997201,0.0007213114754099571,-0.0012868852459016879,-0.0003647540983587883,0.003020491803278693,-0.003499999999999998,0.017449152043079248,0.19604427987597342
2025-09-03 22:29:42.017503,0.0007213114754099571,-0.0012868852459016879,-0.0003647540983587883,0.003020491803278693,-0.003499999999999998,0.01826535925707448,0.19644441708943483
2025-09-03 22:29:42.037736,0.0007213114754099571,-0.0012868852459016879,-0.0003647540983587883,0.003020491803278693,-0.003499999999999998,0.01883334071298735,0.19684035436053574
2025-09-03 22:29:42.058110,0.0007213114754099571,-0.0012868852459016879,-0.0003647540983587883,0.003020491803278693,-0.003499999999999998,0.018756050002132298,0.19722022919267646
2025-09-03 22:29:42.078064,0.0007213114754099571,-0.0012868852459016879,-0.0003647540983587883,0.003020491803278693,-0.003499999999999998,0.02437510870774799,0.1977064057776499
2025-09-03 22:29:42.098361,0.0007213114754099571,-0.0012868852459016879,-0.0003647540983587883,0.003020491803278693,-0.003499999999999998,0.052007796196218516,0.1992567828083553
2025-09-03 22:29:42.118608,0.0007213114754099571,-0.0012868852459016879,-0.0003647540983587883,0.003020491803278693,-0.003499999999999998,0.05347460495532857,0.2000085849567682
2025-09-03 22:29:42.139107,0.0007213114754099571,-0.0012868852459016879,-0.0003647540983587883,0.003020491803278693,-0.003499999999999998,0.04771270523114375,0.20109036059334354
2025-09-03 22:29:42.159231,0.0007213114754099571,-0.0012868852459016879,-0.0003647540983587883,0.003020491803278693,-0.003499999999999998,0.045503962356047235,0.20231208612033688
2025-09-03 22:29:42.179480,0.0007213114754099571,-0.0012868852459016879,-0.0003647540983587883,0.003020491803278693,-0.003499999999999998,0.050706841269070504,0.20322127566900752
2025-09-03 22:29:42.199729,0.0007213114754099571,-0.0012868852459016879,-0.0003647540983587883,0.003020491803278693,-0.003499999999999998,0.05298988888917494,0.2039908720460103
2025-09-03 22:29:42.220104,0.0007213114754099571,-0.0012868852459016879,-0.0003647540983587883,0.003020491803278693,-0.003499999999999998,0.0477960561574995,0.20508284319153644
2025-09-03 22:29:42.240101,0.0007213114754099571,-0.0012868852459016879,-0.0003647540983587883,0.003020491803278693,-0.003499999999999998,0.04551001355799138,0.20629605839682985
2025-09-03 22:29:42.260346,0.0007213114754099571,-0.0012868852459016879,-0.0003647540983587883,0.003020491803278693,-0.003499999999999998,0.050703869713898196,0.20720572490881115
2025-09-03 22:29:42.280475,0.0007213114754099571,-0.0012868852459016879,-0.0003647540983587883,0.003020491803278693,-0.003499999999999998,0.052989996271235046,0.20797065207394816
2025-09-03 22:29:42.300652,0.0007213114754099571,-0.0012868852459016879,-0.0003647540983587883,0.003020491803278693,-0.003499999999999998,0.04779613148792961,0.20905276190134842
2025-09-03 22:29:42.321022,0.0007213114754099571,-0.0012868852459016879,-0.0003647540983587883,0.003020491803278693,-0.003499999999999998,0.04551000333209083,0.21028162737896644
2025-09-03 22:29:42.341270,0.0007213114754099571,-0.0012868852459016879,-0.0003647540983587883,0.003020491803278693,-0.003499999999999998,0.05070386851506641,0.21118983547657155
2025-09-03 22:29:42.361519,0.0007213114754099571,-0.0012868852459016879,-0.0003647540983587883,0.003020491803278693,-0.003499999999999998,0.05298999667903902,0.2119593939524573
2025-09-03 22:29:42.381644,0.0007213114754099571,-0.0012868852459016879,-0.0003647540983587883,0.003020491803278693,-0.003499999999999998,0.0477961314837929,0.2130387450620091
2025-09-03 22:29:42.402030,0.0007213114754099571,-0.0012868852459016879,-0.0003647540983587883,0.003020491803278693,-0.003499999999999998,0.039881923465364476,0.21415439662026964
2025-09-03 22:29:42.422142,0.0007213114754099571,-0.0012868852459016879,-0.0003647540983587883,0.003020491803278693,-0.003499999999999998,0.017446179698018243,0.21389078462256764
2025-09-03 22:29:42.442520,0.0007213114754099571,-0.0012868852459016879,-0.0003647540983587883,0.003020491803278693,-0.003499999999999998,0.018265467043014197,0.2142923745919269
2025-09-03 22:29:42.462513,0.0007213114754099571,-0.0012868852459016879,-0.0003647540983587883,0.003020491803278693,-0.003499999999999998,0.018833416027885665,0.2146838165399782
2025-09-03 22:29:42.483016,0.0007213114754099571,-0.0012868852459016879,-0.0003647540983587883,0.003020491803278693,-0.003499999999999998,0.01875603976608196,0.21506612267369657
2025-09-03 22:29:42.503139,0.0007213114754099571,-0.0012868852459016879,-0.0003647540983587883,0.003020491803278693,-0.003499999999999998,0.024375107510324612,0.21555642009136483
2025-09-03 22:29:42.523258,0.0007213114754099571,-0.0012868852459016879,-0.0003647540983587883,0.003020491803278693,-0.003499999999999998,0.05200779660418112,0.21709779974998314
2025-09-03 22:29:42.543504,0.0007213114754099571,-0.0012868852459016879,-0.0003647540983587883,0.003020491803278693,-0.003499999999999998,0.05347460495113632,0.21784820138660493
2025-09-03 22:29:42.564007,0.0007213114754099571,-0.0012868852459016879,-0.0003647540983587883,0.003020491803278693,-0.003499999999999998,0.04771270521980227,0.2189292528051976
2025-09-03 22:29:42.584130,0.0007213114754099571,-0.0012868852459016879,-0.0003647540983587883,0.003020491803278693,-0.003499999999999998,0.03987588250185807,0.22003676178308093
2025-09-03 22:29:42.604254,0.0007213114754099571,-0.0012868852459016879,-0.0003647540983587883,0.003020491803278693,-0.003499999999999998,0.01744915245104198,0.21977308439367693
2025-09-03 22:29:42.624498,0.0007213114754099571,-0.0012868852459016879,-0.0003647540983587883,0.003020491803278693,-0.003499999999999998,0.01826535925288225,0.2201720706792568
2025-09-03 22:29:42.644692,0.0007213114754099571,-0.0012868852459016879,-0.0003647540983587883,0.003020491803278693,-0.003499999999999998,0.018833340701645856,0.22056721163329282
2025-09-03 22:29:42.665085,0.0007213114754099571,-0.0012868852459016879,-0.00031862229626547533,0.003020491803278693,-0.003499999999999998,0.01875605000332731,0.22094747976270937
2025-09-03 22:29:42.685199,0.0007213114754099571,-0.0012868852459016879,-4.601828955857649e-05,0.003020491803278693,-0.003499999999999998,0.01874702885257695,0.22132431924631238
2025-09-03 22:29:42.705447,0.0007213114754099571,-0.0012868852459016879,0.00023860900254173606,0.003020491803278693,-0.003499999999999998,0.018750107377922293,0.22170406874424595
2025-09-03 22:29:42.725822,0.0007213114754099571,-0.0012868852459016879,0.0004760083095569221,0.003020491803278693,-0.003499999999999998,0.018750075319089496,0.22208613565050309
2025-09-03 22:29:42.746068,0.0007213114754099571,-0.0012868852459016879,0.0006491712906985742,0.003020491803278693,-0.003499999999999998,0.018749989775292724,0.22246571044823193
2025-09-03 22:29:42.766190,0.0007213114754099571,-0.0012868852459016879,0.0006385086025270944,0.003020491803278693,-0.003499999999999998,0.018749998801381385,0.22284299468481883
2025-09-03 22:29:42.786441,0.0007213114754099571,-0.0012868852459016879,0.0005884043353278356,0.003020491803278693,-0.003499999999999998,0.01875000040774934,0.22322270165205116
2025-09-03 22:29:42.806687,0.0007213114754099571,-0.0012868852459016879,0.0003164834492191942,0.003020491803278693,-0.003499999999999998,0.01874999999586223,0.22360229680094326
2025-09-03 22:29:42.827053,0.0007213114754099571,-0.0012868852459016879,3.190574730029456e-05,0.003020491803278693,-0.003499999999999998,0.018749999988659387,0.22398417183880684
2025-09-03 22:29:42.847177,0.0007213114754099571,-0.0012868852459016879,-0.00020551791338403974,0.003020491803278693,-0.003499999999999998,0.01875000000119326,0.2243614960626869
2025-09-03 22:29:42.867559,0.0007213114754099571,-0.0012868852459016879,-0.0003786800143783397,0.003020491803278693,-0.003499999999999998,0.018750000000213173,0.22474367061414788
2025-09-03 22:29:42.887801,0.0007213114754099571,-0.0012868852459016879,-0.0003680167088372652,0.003020491803278693,-0.003499999999999998,0.018749999999945373,0.22512319871939887
2025-09-03 22:29:42.907978,0.0007213114754099571,-0.0012868852459016879,-0.0003640443275404082,0.003020491803278693,-0.003499999999999998,0.01874999999999894,0.22550151983060257
2025-09-03 22:29:42.928100,0.0007213114754099571,-0.0012868852459016879,-0.0003647274579634068,0.003020491803278693,-0.003499999999999998,0.018750000000001574,0.22587880829133414
2025-09-03 22:29:42.948326,0.0007213114754099571,-0.0012868852459016879,-0.000364777044802611,0.003020491803278693,-0.003499999999999998,0.018749999999999788,0.2262580681756916
2025-09-03 22:29:42.968600,0.0007213114754099571,-0.0012868852459016879,-0.0003647526911673782,0.003020491803278693,-0.003499999999999998,0.018749999999999874,0.2266381818965855
2025-09-03 22:29:42.988976,0.0007213114754099571,-0.0012868852459016879,-0.0003647535714076853,0.003020491803278693,-0.003499999999999998,0.01874999999999992,0.2270202223376217
2025-09-03 22:29:43.008967,0.0007213114754099571,-0.0012868852459016879,-0.0003647541887674984,0.003020491803278693,-0.003499999999999998,0.024378079855384097,0.22750761491632673
2025-09-03 22:29:43.029220,0.0007213114754099571,-0.0012868852459016879,-0.00036475410495666154,0.003020491803278693,-0.003499999999999998,0.05200768881824156,0.22905627177531016
2025-09-03 22:29:43.049593,0.0007213114754099571,-0.0012868852459016879,-0.00036475409513236765,0.003020491803278693,-0.003499999999999998,0.05347452963623802,0.2298146287179403
2025-09-03 22:29:43.069975,0.0007213114754099571,-0.0012868852459016879,-0.00036475409847458435,0.003020491803278693,-0.003499999999999998,0.04771271545585261,0.2308912251431267
2025-09-03 22:29:43.089968,0.0007213114754099571,-0.0012868852459016879,-0.00036475409844065516,0.003020491803278693,-0.003499999999999998,0.03987588369928147,0.2319949212868472
2025-09-03 22:29:43.110219,0.0007213114754099571,-0.0012868852459016879,-0.00036475409834770114,0.003020491803278693,-0.003499999999999998,0.01744915204307938,0.2317356931278266
2025-09-03 22:29:43.130463,0.0007213114754099571,-0.0012868852459016879,-0.0003647540983574831,0.003020491803278693,-0.003499999999999998,0.018265359257074513,0.2321347019462031
2025-09-03 22:29:43.151027,0.0007213114754099571,-0.0012868852459016879,-0.000364754098359231,0.003020491803278693,-0.003499999999999998,0.018833340712987336,0.2325368318942835
2025-09-03 22:29:43.171028,0.0007213114754099571,-0.0012868852459016879,-0.0003647540983587841,0.003020491803278693,-0.003499999999999998,0.018756050002132287,0.23290969035253004
2025-09-03 22:29:43.191152,0.0007213114754099571,-0.0012868852459016879,-0.00031862229626546313,0.003020491803278693,-0.003499999999999998,0.01874702885236381,0.23328674434281008
2025-09-03 22:29:43.211481,0.0007213114754099571,-0.0012868852459016879,-9.215009165189074e-05,0.003020491803278693,-0.003499999999999998,0.018750107377976867,0.2336680224627337
2025-09-03 22:29:43.231794,0.0007213114754099571,-0.0012868852459016879,-8.012680625847608e-05,0.003020491803278693,-0.003499999999999998,0.018750075319090464,0.23404893600523402
2025-09-03 22:29:43.252021,0.0007213114754099571,-0.0012868852459016879,-0.0001273547913436023,0.003020491803278693,-0.003499999999999998,0.018749989775291062,0.23442814870429235
2025-09-03 22:29:43.272139,0.0007213114754099571,-0.0012868852459016879,-0.00014545931512382338,0.003020491803278693,-0.003499999999999998,0.02437807865676569,0.23491856386629953
2025-09-03 22:29:43.292393,0.0007213114754099571,-0.0012868852459016879,-0.00010281277982336924,0.003020491803278693,-0.003499999999999998,0.05200768922599103,0.23646747397483703
2025-09-03 22:29:43.312639,0.0007213114754099571,-0.0012868852459016879,-8.409927136442165e-05,0.003020491803278693,-0.003499999999999998,0.05347452963210033,0.23721893668501592
2025-09-03 22:29:43.333014,0.0007213114754099571,-0.0012868852459016879,-0.00012667167074534473,0.003020491803278693,-0.003499999999999998,0.04771271544451207,0.23829432183062138
2025-09-03 22:29:43.353262,0.0007213114754099571,-0.0012868852459016879,-0.00019154152703572337,0.003020491803278693,-0.003499999999999998,0.04550396355585898,0.23952110161335533
2025-09-03 22:29:43.373510,0.0007213114754099571,-0.0012868852459016879,-0.00037544114019941654,0.003020491803278693,-0.003499999999999998,0.05070684086153429,0.24042991860491014
2025-09-03 22:29:43.393635,0.0007213114754099571,-0.0012868852459016879,-0.00036872568331738215,0.003020491803278693,-0.003499999999999998,0.052989888893258084,0.2411927129601046
2025-09-03 22:29:43.414007,0.0007213114754099571,-0.0012868852459016879,-0.0003640703603909361,0.003020491803278693,-0.003499999999999998,0.04779605616883906,0.24228353081860662
2025-09-03 22:29:43.434130,0.0007213114754099571,-0.0012868852459016879,-0.0003647045919864643,0.003020491803278693,-0.003499999999999998,0.03988193370141551,0.2433883543116906
2025-09-03 22:29:43.454259,0.0007213114754099571,-0.0012868852459016879,-0.00036477846185267753,0.003020491803278693,-0.003499999999999998,0.017446180895443156,0.24312696526846517
2025-09-03 22:29:43.474502,0.0007213114754099571,-0.0012868852459016879,-0.00036475321486922755,0.003020491803278693,-0.003499999999999998,0.018265466635051433,0.24352571656636804
2025-09-03 22:29:43.495003,0.0007213114754099571,-0.0012868852459016879,-0.0003647534810231092,0.003020491803278693,-0.003499999999999998,0.018833416032077905,0.2439266411644264
2025-09-03 22:29:43.515094,0.0007213114754099571,-0.0012868852459016879,-0.0003647541822608324,0.003020491803278693,-0.003499999999999998,0.018756039777423447,0.24430119802538472
2025-09-03 22:29:43.535375,0.0007213114754099571,-0.0012868852459016879,-0.00036475410817374775,0.003020491803278693,-0.003499999999999998,0.01874702765374542,0.24468118432105332
2025-09-03 22:29:43.555553,0.0007213114754099571,-0.0012868852459016879,-0.0003647540950148316,0.003020491803278693,-0.003499999999999998,0.018750107785726333,0.24505961523482603
2025-09-03 22:29:43.575927,0.0007213114754099571,-0.0012868852459016879,-0.0003647540983931509,0.003020491803278693,-0.003499999999999998,0.018750075314952777,0.24544161954292487
2025-09-03 22:29:43.595924,0.0007213114754099571,-0.0012868852459016879,-0.00036475409845175143,0.003020491803278693,-0.003499999999999998,0.018749989763950543,0.24581656753110256
2025-09-03 22:29:43.616131,0.0007213114754099571,-0.0012868852459016879,-0.00036475409834899324,0.003020491803278693,-0.003499999999999998,0.018749998802574868,0.24619545662121026
2025-09-03 22:29:43.636426,0.0007213114754099571,-0.0012868852459016879,-0.0003647540983570414,0.003020491803278693,-0.003499999999999998,0.018750000407962642,0.24657597719171875
2025-09-03 22:29:43.656795,0.0007213114754099571,-0.0012868852459016879,-0.00036475409835923575,0.003020491803278693,-0.003499999999999998,0.018749999995807683,0.24695789692174785
2025-09-03 22:29:43.676918,0.0007213114754099571,-0.0012868852459016879,-0.0003647540983587962,0.003020491803278693,-0.003499999999999998,0.01874999998865842,0.2473351987932453
2025-09-03 22:29:43.697169,0.0007213114754099571,-0.0012868852459016879,-0.00036475409835877475,0.003020491803278693,-0.003499999999999998,0.018750000001194925,0.24771491465349638
2025-09-03 22:29:43.717412,0.0007213114754099571,-0.0012868852459016879,-0.0003647540983587895,0.003020491803278693,-0.003499999999999998,0.01875000000021304,0.2480944829918645
2025-09-03 22:29:43.737738,0.0007213114754099571,-0.0012868852459016879,-0.00036475409835878874,0.003020491803278693,-0.003499999999999998,0.018749999999945335,0.24847561595217613
2025-09-03 22:29:43.757980,0.0007213114754099571,-0.0012868852459016879,-0.0003647540983587883,0.003020491803278693,-0.003499999999999998,0.018749999999998945,0.2488551261760432
2025-09-03 22:29:43.778103,0.0007213114754099571,-0.0012868852459016879,-0.0003647540983587883,0.003020491803278693,-0.003499999999999998,0.02437807985538575,0.24934566896018923
2025-09-03 22:29:43.798292,0.0007213114754099571,-0.0012868852459016879,-0.0003647540983587883,0.003020491803278693,-0.003499999999999998,0.052007688818241436,0.25089153373857503
2025-09-03 22:29:43.818531,0.0007213114754099571,-0.0012868852459016879,-0.0003647540983587883,0.003020491803278693,-0.003499999999999998,0.053474529636237986,0.2516426257951825
2025-09-03 22:29:43.838904,0.0007213114754099571,-0.0012868852459016879,-0.0003647540983587883,0.003020491803278693,-0.003499999999999998,0.04771271545585261,0.2527176523830135
2025-09-03 22:29:43.859153,0.0007213114754099571,-0.0012868852459016879,-0.0003647540983587883,0.003020491803278693,-0.003499999999999998,0.03987588369928145,0.2538301769835442
2025-09-03 22:29:43.879239,0.0007213114754099571,-0.0012868852459016879,-0.0003647540983587883,0.003020491803278693,-0.003499999999999998,0.017449152043079372,0.2535656110210242
2025-09-03 22:29:43.899523,0.0007213114754099571,-0.0012868852459016879,-0.0003647540983587883,0.003020491803278693,-0.003499999999999998,0.018265359257074513,0.2539653312994056
2025-09-03 22:29:43.919897,0.0007213114754099571,-0.0012868852459016879,-0.0003647540983587883,0.003020491803278693,-0.003499999999999998,0.018833340712987343,0.2543639037677382
2025-09-03 22:29:43.940020,0.0007213114754099571,-0.0012868852459016879,-0.0003647540983587883,0.003020491803278693,-0.003499999999999998,0.024384129857516472,0.2548523264033012
2025-09-03 22:29:43.960341,0.0007213114754099571,-0.0012868852459016879,-0.0003647540983587883,0.003020491803278693,-0.003499999999999998,0.05200471767060547,0.25640536225688987
2025-09-03 22:29:43.980540,0.0007213114754099571,-0.0012868852459016879,-0.0003647540983587883,0.003020491803278693,-0.003499999999999998,0.05347463701421498,0.2571533470358598
2025-09-03 22:29:44.000960,0.0007213114754099571,-0.0012868852459016879,-0.0003647540983587883,0.003020491803278693,-0.003499999999999998,0.04771279077494315,0.2582307905471359
2025-09-03 22:29:44.021085,0.0007213114754099571,-0.0012868852459016879,-0.0003647540983587883,0.003020491803278693,-0.003499999999999998,0.03987587347457261,0.25933886821698854
2025-09-03 22:29:44.041332,0.0007213114754099571,-0.0012868852459016879,-0.0003647540983587883,0.003020491803278693,-0.003499999999999998,0.017449150844460984,0.25907849592211873
2025-09-03 22:29:44.061585,0.0007213114754099571,-0.0012868852459016879,-0.0003647540983587883,0.003020491803278693,-0.003499999999999998,0.018265359664823986,0.2594777370962806
2025-09-03 22:29:44.081953,0.0007213114754099571,-0.0012868852459016879,-0.0003647540983587883,0.003020491803278693,-0.003499999999999998,0.01883334070884965,0.2598762046909137
2025-09-03 22:29:44.102080,0.0007213114754099571,-0.0012868852459016879,-0.0003647540983587883,0.003020491803278693,-0.003499999999999998,0.018756049990791772,0.2602514344470153
2025-09-03 22:29:44.122453,0.0007213114754099571,-0.0012868852459016879,-0.0003647540983587883,0.003020491803278693,-0.003499999999999998,0.018747028853557165,0.26063315503038237
2025-09-03 22:29:44.142449,0.0007213114754099571,-0.0012868852459016879,-0.0003647540983587883,0.003020491803278693,-0.003499999999999998,0.018750107378190127,0.26100817958537037
2025-09-03 22:29:44.162828,0.0007213114754099571,-0.0012868852459016879,-0.0003647540983587883,0.003020491803278693,-0.003499999999999998,0.01875007531903592,0.2613902688533294
2025-09-03 22:29:44.183073,0.0007213114754099571,-0.0012868852459016879,-0.0003647540983587883,0.003020491803278693,-0.003499999999999998,0.018749989775290094,0.26176987941731206
2025-09-03 22:29:44.203324,0.0007213114754099571,-0.0012868852459016879,-0.0003647540983587883,0.003020491803278693,-0.003499999999999998,0.01874999880138318,0.2621495597599375
2025-09-03 22:29:44.223572,0.0007213114754099571,-0.0012868852459016879,-0.0003647540983587883,0.003020491803278693,-0.003499999999999998,0.018750000407749247,0.26252923543482576
2025-09-03 22:29:44.243944,0.0007213114754099571,-0.0012868852459016879,-0.0003647540983587883,0.003020491803278693,-0.003499999999999998,0.018749999995862188,0.2629112356311088
2025-09-03 22:29:44.264185,0.0007213114754099571,-0.0012868852459016879,-0.0003647540983587883,0.003020491803278693,-0.003499999999999998,0.018749999988659394,0.26329073691399557
2025-09-03 22:29:44.284314,0.0007213114754099571,-0.0012868852459016879,-0.0003647540983587883,0.003020491803278693,-0.003499999999999998,0.018750000001193264,0.26366813713379755
2025-09-03 22:29:44.304563,0.0007213114754099571,-0.0012868852459016879,-0.0003647540983587883,0.003020491803278693,-0.003499999999999998,0.018750000000213173,0.26404780381982956
2025-09-03 22:29:44.324937,0.0007213114754099571,-0.0012868852459016879,-0.0003647540983587883,0.003020491803278693,-0.003499999999999998,0.018749999999945373,0.26442981743876776
2025-09-03 22:29:44.345058,0.0007213114754099571,-0.0012868852459016879,-0.0003647540983587883,0.003020491803278693,-0.003499999999999998,0.01874999999999894,0.2648070880181073
2025-09-03 22:29:44.365182,0.0007213114754099571,-0.0012868852459016879,-0.0003647540983587883,0.003020491803278693,-0.003499999999999998,0.018750000000001574,0.2651844077712774
2025-09-03 22:29:44.385431,0.0007213114754099571,-0.0012868852459016879,-0.0003647540983587883,0.003020491803278693,-0.003499999999999998,0.018749999999999788,0.2655640744573353
2025-09-03 22:29:44.405805,0.0007213114754099571,-0.0012868852459016879,-0.0003647540983587883,0.003020491803278693,-0.003499999999999998,0.018749999999999874,0.2659460925466297
2025-09-03 22:29:44.425929,0.0007213114754099571,-0.0012868852459016879,-0.0003647540983587883,0.003020491803278693,-0.003499999999999998,0.01874999999999992,0.26632342124049646
2025-09-03 22:29:44.446178,0.0007213114754099571,-0.0012868852459016879,-0.0003647540983587883,0.003020491803278693,-0.003499999999999998,0.01874999999999992,0.2667030879265545
2025-09-03 22:29:44.466300,0.0007213114754099571,-0.0012868852459016879,-0.0003647540983587883,0.003020491803278693,-0.003499999999999998,0.01874999999999992,0.267080376387286
2025-09-03 22:29:44.486551,0.0007213114754099571,-0.0012868852459016879,-0.0003647540983587883,0.003020491803278693,-0.003499999999999998,0.01874999999999992,0.26746007883613093
2025-09-03 22:29:44.506922,0.0007213114754099571,-0.0012868852459016879,-0.0003647540983587883,0.003020491803278693,-0.003499999999999998,0.01874999999999992,0.26784204328124506
2025-09-03 22:29:44.527045,0.0007213114754099571,-0.0012868852459016879,-0.0003647540983587883,0.003020491803278693,-0.003499999999999998,0.01874999999999992,0.26821933621232485
2025-09-03 22:29:44.547295,0.0007213114754099571,-0.0012868852459016879,-0.0003647540983587883,0.003020491803278693,-0.003499999999999998,0.01874999999999992,0.2685990341908214
2025-09-03 22:29:44.567416,0.0007213114754099571,-0.0012868852459016879,-0.0003647540983587883,0.003020491803278693,-0.003499999999999998,0.01874999999999992,0.26897629582946264
2025-09-03 22:29:44.587794,0.0007213114754099571,-0.0012868852459016879,-0.0003647540983587883,0.003020491803278693,-0.003499999999999998,0.01874999999999992,0.2693583854443308
2025-09-03 22:29:44.608039,0.0007213114754099571,-0.0012868852459016879,-0.0003647540983587883,0.003020491803278693,-0.003499999999999998,0.01874999999999992,0.26973797166411834
2025-09-03 22:29:44.628164,0.0007213114754099571,-0.0012868852459016879,-0.0003647540983587883,0.003020491803278693,-0.003499999999999998,0.01874999999999992,0.2701153182393785
2025-09-03 22:29:44.648415,0.0007213114754099571,-0.0012868852459016879,-0.0003647540983587883,0.003020491803278693,-0.003499999999999998,0.01874999999999992,0.2704950340992685
2025-09-03 22:29:44.668910,0.0007213114754099571,-0.0012868852459016879,-0.0003647540983587883,0.003020491803278693,-0.003499999999999998,0.01874999999999992,0.2708793097144839
2025-09-03 22:29:44.688908,0.0007213114754099571,-0.0012868852459016879,-0.0003647540983587883,0.003020491803278693,-0.003499999999999998,0.01874999999999992,0.2712542825347659
2025-09-03 22:29:44.709282,0.0007213114754099571,-0.0012868852459016879,-0.0003647540983587883,0.003020491803278693,-0.003499999999999998,0.024378079855384097,0.2717509513641789
2025-09-03 22:29:44.729405,0.0007213114754099571,-0.0012868852459016879,-0.0003647540983587883,0.003020491803278693,-0.003499999999999998,0.05200768881824156,0.2732949587413274
2025-09-03 22:29:44.749836,0.0007213114754099571,-0.0012868852459016879,-0.0003647540983587883,0.003020491803278693,-0.003499999999999998,0.05347452963623802,0.27405593936595984
2025-09-03 22:29:44.769832,0.0007213114754099571,-0.0012868852459016879,-0.0003647540983587883,0.003020491803278693,-0.003499999999999998,0.04771271545585261,0.2751130476497949
2025-09-03 22:29:44.790085,0.0007213114754099571,-0.0012868852459016879,-0.0003647540983587883,0.003020491803278693,-0.003499999999999998,0.04550396355466564,0.2763399901867512
2025-09-03 22:29:44.810203,0.0007213114754099571,-0.0012868852459016879,-0.0003647540983587883,0.003020491803278693,-0.003499999999999998,0.05070684086132103,0.2772436537321509
2025-09-03 22:29:44.830451,0.0007213114754099571,-0.0012868852459016879,-0.0003647540983587883,0.003020491803278693,-0.003499999999999998,0.052989888893312624,0.2780151694438843
2025-09-03 22:29:44.850708,0.0007213114754099571,-0.0012868852459016879,-0.0003647540983587883,0.003020491803278693,-0.003499999999999998,0.04779605616884002,0.2791007329969587
2025-09-03 22:29:44.870952,0.0007213114754099571,-0.0012868852459016879,-0.0003647540983587883,0.003020491803278693,-0.003499999999999998,0.03988193370141384,0.28021035971444397
2025-09-03 22:29:44.891150,0.0007213114754099571,-0.0012868852459016879,-0.0003647540983587883,0.003020491803278693,-0.003499999999999998,0.01744618089544328,0.27994871466823784
2025-09-03 22:29:44.911407,0.0007213114754099571,-0.0012868852459016879,-0.0003647540983587883,0.003020491803278693,-0.003499999999999998,0.018265466635051478,0.28034812023008426
2025-09-03 22:29:44.931777,0.0007213114754099571,-0.0012868852459016879,-0.0003647540983587883,0.003020491803278693,-0.003499999999999998,0.01883341603207789,0.2807466142585811
2025-09-03 22:29:44.951732,0.0007213114754099571,-0.0012868852459016879,-0.0003647540983587883,0.003020491803278693,-0.003499999999999998,0.018756039777423444,0.28111864045368246
2025-09-03 22:29:44.972025,0.0007213114754099571,-0.0012868852459016879,-0.0003647540983587883,0.003020491803278693,-0.003499999999999998,0.024375107509129596,0.28161307650148615
2025-09-03 22:29:44.992399,0.0007213114754099571,-0.0012868852459016879,-0.0003647540983587883,0.003020491803278693,-0.003499999999999998,0.05200779660396799,0.28316809102316187
2025-09-03 22:29:45.012773,0.0007213114754099571,-0.0012868852459016879,-0.0003647540983587883,0.003020491803278693,-0.003499999999999998,0.050660565023498805,0.2838687174458255
2025-09-03 22:29:45.032770,0.0007213114754099571,-0.0012868852459016879,-0.0003647540983587883,0.003020491803278693,-0.003499999999999998,0.0310838608106824,0.28434468860685813
2025-09-03 22:29:45.053020,0.0007213114754099571,-0.0012868852459016879,-0.0003647540983587883,0.003020491803278693,-0.003499999999999998,0.02251361768373735,0.28527341672895584
2025-09-03 22:29:45.073266,0.0007213114754099571,-0.0012868852459016879,-0.0003647540983587883,0.003020491803278693,-0.003499999999999998,0.002967794723115772,0.28467061751225664
2025-09-03 22:29:45.093640,0.0007213114754099571,-0.0012868852459016879,-0.0003647540983587883,0.003020491803278693,-0.003499999999999998,0.007702417403241527,0.2847049424832653
2025-09-03 22:29:45.113888,0.0007213114754099571,-0.0012868852459016879,-0.0003647540983587883,0.003020491803278693,-0.003499999999999998,0.019483764680106118,0.2854220862541493
2025-09-03 22:29:45.134012,0.0007213114754099571,-0.0012868852459016879,-0.0003647540983587883,0.003020491803278693,-0.003499999999999998,0.024626450230174186,0.2859006932941407
2025-09-03 22:29:45.154262,0.0007213114754099571,-0.0012868852459016879,-0.0003647540983587883,0.003020491803278693,-0.003499999999999998,0.05196304731432488,0.287441619312537
2025-09-03 22:29:45.174499,0.0007213114754099571,-0.0012868852459016879,-0.0003647540983587883,0.003020491803278693,-0.003499999999999998,0.05347161201309421,0.28819353201382564
2025-09-03 22:29:45.194748,0.0007213114754099571,-0.0012868852459016879,-0.0003647540983587883,0.003020491803278693,-0.003499999999999998,0.047714276348760236,0.28926293929610564
2025-09-03 22:29:45.214871,0.0007213114754099571,-0.0012868852459016879,-0.0003647540983587883,0.003020491803278693,-0.003499999999999998,0.039875819785585805,0.2903704389042491
2025-09-03 22:29:45.235119,0.0007213114754099571,-0.0012868852459016879,-0.0003647540983587883,0.003020491803278693,-0.003499999999999998,0.01744911318491558,0.29011169186472924
2025-09-03 22:29:45.255546,0.0007213114754099571,-0.0012868852459016879,-0.0003647540983587883,0.003020491803278693,-0.003499999999999998,0.01826536477717837,0.2905141456363371
2025-09-03 22:29:45.275795,0.0007213114754099571,-0.0012868852459016879,-0.0003647540983587883,0.003020491803278693,-0.003499999999999998,0.018833341308158853,0.29091036297231393
2025-09-03 22:29:45.296414,0.0007213114754099571,-0.0012868852459016879,-0.0003647540983587883,0.003020491803278693,-0.003499999999999998,0.018756049786917042,0.2912948222248716
2025-09-03 22:29:45.316790,0.0007213114754099571,-0.0012868852459016879,-0.0003647540983587883,0.003020491803278693,-0.003499999999999998,0.018747028855626013,0.2916766080253222
2025-09-03 22:29:45.336912,0.0007213114754099571,-0.0012868852459016879,-0.0003647540983587883,0.003020491803278693,-0.003499999999999998,0.01875010738386039,0.2920539935677694
2025-09-03 22:29:45.357407,0.0007213114754099571,-0.0012868852459016879,-0.0003647540983587883,0.003020491803278693,-0.003499999999999998,0.018750075318439245,0.2924382554277084
2025-09-03 22:29:45.377738,0.0007213114754099571,-0.0012868852459016879,-0.0003647540983587883,0.003020491803278693,-0.003499999999999998,0.018749989775183468,0.29281946189461666
2025-09-03 22:29:45.398284,0.0007213114754099571,-0.0012868852459016879,-0.0003647540983587883,0.003020491803278693,-0.003499999999999998,0.018749998801410445,0.2932046944109143
2025-09-03 22:29:45.418779,0.0007213114754099571,-0.0012868852459016879,-0.0003647540983587883,0.003020491803278693,-0.003499999999999998,0.018750000407749733,0.2935889924264419
2025-09-03 22:29:45.439154,0.0007213114754099571,-0.0012868852459016879,-0.0003647540983587883,0.003020491803278693,-0.003499999999999998,0.01874999999586136,0.29397101497433437
2025-09-03 22:29:45.459776,0.0007213114754099571,-0.0012868852459016879,-0.00031862229626547533,0.003020491803278693,-0.003499999999999998,0.01874999998865946,0.2943576777552849
2025-09-03 22:29:45.480026,0.0007213114754099571,-0.0012868852459016879,-9.215009165188946e-05,0.003020491803278693,-0.003499999999999998,0.02437807985657746,0.29485134749648845
2025-09-03 22:29:45.500773,0.0007213114754099571,-0.0012868852459016879,-8.012680625847589e-05,0.003020491803278693,-0.003499999999999998,0.05200768881845482,0.2964305609666103
2025-09-03 22:29:45.521021,0.0007213114754099571,-0.0012868852459016879,-8.122298925028937e-05,0.003020491803278693,-0.003499999999999998,0.05347452963618349,0.2971773880792378
2025-09-03 22:29:45.541395,0.0007213114754099571,-0.0012868852459016879,0.00012714469158307554,0.003020491803278693,-0.003499999999999998,0.04771271545585162,0.2982536536996545
2025-09-03 22:29:45.561850,0.0007213114754099571,-0.0012868852459016879,0.00022794631437025628,0.003020491803278693,-0.003499999999999998,0.03987588369928312,0.29937737876839027
2025-09-03 22:29:45.582097,0.0007213114754099571,-0.0012868852459016879,0.00042590404235766323,0.003020491803278693,-0.003499999999999998,0.017449152043079248,0.299112824823751
2025-09-03 22:29:45.602516,0.0007213114754099571,-0.0012868852459016879,0.00033111860249661974,0.003020491803278693,-0.003499999999999998,0.01826535925707448,0.29951523390726054
2025-09-03 22:29:45.623016,0.0007213114754099571,-0.0012868852459016879,3.519509180798279e-05,0.003020491803278693,-0.003499999999999998,0.01883334071298735,0.2999162730410955
2025-09-03 22:29:45.643762,0.0007213114754099571,-0.0012868852459016879,-0.0002062506241637103,0.003020491803278693,-0.003499999999999998,0.018756050002132298,0.3003031205493939
2025-09-03 22:29:45.663891,0.0007213114754099571,-0.0012868852459016879,-0.0003787052508906043,0.003020491803278693,-0.003499999999999998,0.018747028852363814,0.300680260963401
2025-09-03 22:29:45.684388,0.0007213114754099571,-0.0012868852459016879,-0.000367993235315469,0.003020491803278693,-0.003499999999999998,0.01875010737797687,0.30106466493066725
2025-09-03 22:29:45.704887,0.0007213114754099571,-0.0012868852459016879,-0.0003640458250573551,0.003020491803278693,-0.003499999999999998,0.01875007531909046,0.30144901617778513
2025-09-03 22:29:45.725257,0.0007213114754099571,-0.0012868852459016879,-0.0003647279915239126,0.003020491803278693,-0.003499999999999998,0.018749989775291062,0.3018309691834736
2025-09-03 22:29:45.745753,0.0007213114754099571,-0.0012868852459016879,-0.00036477695116878114,0.003020491803278693,-0.003499999999999998,0.018749998801381514,0.30221525398707194
2025-09-03 22:29:45.766008,0.0007213114754099571,-0.0012868852459016879,-0.0003647526846848459,0.003020491803278693,-0.003499999999999998,0.018750000407749375,0.30259513529832077
2025-09-03 22:29:45.786759,0.0007213114754099571,-0.0012868852459016879,-0.00036475357471597863,0.003020491803278693,-0.003499999999999998,0.01874999999586222,0.3029841181786721
2025-09-03 22:29:45.807125,0.0007213114754099571,-0.0012868852459016879,-0.0003647541886406279,0.003020491803278693,-0.003499999999999998,0.018749999988659387,0.30336599321653585
2025-09-03 22:29:45.827373,0.0007213114754099571,-0.0012868852459016879,-0.000364754104873488,0.003020491803278693,-0.003499999999999998,0.01875000000119326,0.30374561966982355
2025-09-03 22:29:45.847751,0.0007213114754099571,-0.0012868852459016879,-0.0003647540951438972,0.003020491803278693,-0.003499999999999998,0.018750000000213173,0.30412771375501385
2025-09-03 22:29:45.868247,0.0007213114754099571,-0.0012868852459016879,-0.0003647540984758852,0.003020491803278693,-0.003499999999999998,0.018749999999945373,0.30451202960335644
2025-09-03 22:29:45.888744,0.0007213114754099571,-0.0012868852459016879,-0.00036475409844020023,0.003020491803278693,-0.003499999999999998,0.01874999999999894,0.3048963365110118
2025-09-03 22:29:45.909116,0.0007213114754099571,-0.0012868852459016879,-0.00036475409834770683,0.003020491803278693,-0.003499999999999998,0.018750000000001574,0.30527831883751944
2025-09-03 22:29:45.929741,0.0007213114754099571,-0.0012868852459016879,-0.00036475409835749555,0.003020491803278693,-0.003499999999999998,0.018749999999999788,0.30566503079258983
2025-09-03 22:29:45.949934,0.0007213114754099571,-0.0012868852459016879,-0.00031862229626591676,0.003020491803278693,-0.003499999999999998,0.018749999999999874,0.3060436603578288
2025-09-03 22:29:45.970435,0.0007213114754099571,-0.0012868852459016879,-4.601828955857187e-05,0.003020491803278693,-0.003499999999999998,0.01874999999999992,0.3064280477317531
2025-09-03 22:29:45.990763,0.0007213114754099571,-0.0012868852459016879,0.00023860900254174834,0.003020491803278693,-0.003499999999999998,0.01874999999999992,0.3068091896327694
2025-09-03 22:29:46.011302,0.0007213114754099571,-0.0012868852459016879,0.00047600830955692083,0.003020491803278693,-0.003499999999999998,0.024378079855384097,0.3073099211810074
2025-09-03 22:29:46.031552,0.0007213114754099571,-0.0012868852459016879,0.0006491712906985739,0.003020491803278693,-0.003499999999999998,0.05200768881824156,0.30886446938399226
2025-09-03 22:29:46.051981,0.0007213114754099571,-0.0012868852459016879,0.0006385086025270944,0.003020491803278693,-0.003499999999999998,0.05347452963623802,0.3096218135053749
2025-09-03 22:29:46.072422,0.0007213114754099571,-0.0012868852459016879,0.0006345361374211486,0.003020491803278693,-0.003499999999999998,0.04771271545585261,0.3107001265911028
2025-09-03 22:29:46.092921,0.0007213114754099571,-0.0012868852459016879,0.0005890874559260932,0.003020491803278693,-0.003499999999999998,0.03987588369928147,0.31182453164656293
2025-09-03 22:29:46.113295,0.0007213114754099571,-0.0012868852459016879,0.0003165330394006071,0.003020491803278693,-0.003499999999999998,0.01744915204307938,0.3115597110841364
2025-09-03 22:29:46.133792,0.0007213114754099571,-0.0012868852459016879,3.188139363114627e-05,0.003020491803278693,-0.003499999999999998,0.018265359257074513,0.3119637064497958
2025-09-03 22:29:46.154039,0.0007213114754099571,-0.0012868852459016879,-0.00020551703323668763,0.003020491803278693,-0.003499999999999998,0.024461420568371514,0.31247400624381283
2025-09-03 22:29:46.174671,0.0007213114754099571,-0.0012868852459016879,-0.00037867939700874493,0.003020491803278693,-0.003499999999999998,0.05201373882037395,0.3140441500991727
2025-09-03 22:29:46.195012,0.0007213114754099571,-0.0012868852459016879,-0.0003680167926463541,0.003020491803278693,-0.003499999999999998,0.05347155848860193,0.3147967358040999
2025-09-03 22:29:46.215417,0.0007213114754099571,-0.0012868852459016879,-0.0003640443373651492,0.003020491803278693,-0.003499999999999998,0.04771282283382955,0.3158747324823935
2025-09-03 22:29:46.235916,0.0007213114754099571,-0.0012868852459016879,-0.000364727454621198,0.003020491803278693,-0.003499999999999998,0.03987595901837201,0.31700036799269954
2025-09-03 22:29:46.256166,0.0007213114754099571,-0.0012868852459016879,-0.00036477704483652647,0.003020491803278693,-0.003499999999999998,0.017449141818370532,0.3167343443532174
2025-09-03 22:29:46.276845,0.0007213114754099571,-0.0012868852459016879,-0.00036475269126033324,0.003020491803278693,-0.003499999999999998,0.018265358058456117,0.3171416302410932
2025-09-03 22:29:46.297090,0.0007213114754099571,-0.0012868852459016879,-0.0003647535713979037,0.003020491803278693,-0.003499999999999998,0.024461420976120987,0.31765183720326495
2025-09-03 22:29:46.317708,0.0007213114754099571,-0.0012868852459016879,-0.00036475418876575044,0.003020491803278693,-0.003499999999999998,0.05201373881623625,0.31922151471715926
2025-09-03 22:29:46.338083,0.0007213114754099571,-0.0012868852459016879,-0.0003647541049571085,0.003020491803278693,-0.003499999999999998,0.05347155847726141,0.3199749832785307
2025-09-03 22:29:46.358706,0.0007213114754099571,-0.0012868852459016879,-0.0003647540951323756,0.003020491803278693,-0.003499999999999998,0.04771282283502292,0.3210635562119015
2025-09-03 22:29:46.378955,0.0007213114754099571,-0.0012868852459016879,-0.0003647540984745707,0.003020491803278693,-0.003499999999999998,0.039875959018585275,0.3221798901791902
2025-09-03 22:29:46.399331,0.0007213114754099571,-0.0012868852459016879,-0.00036475409844065625,0.003020491803278693,-0.003499999999999998,0.017449141818315993,0.3219168490015036
2025-09-03 22:29:46.419829,0.0007213114754099571,-0.0012868852459016879,-0.0003647540983477016,0.003020491803278693,-0.003499999999999998,0.01826535805845515,0.32232077754236804
2025-09-03 22:29:46.440328,0.0007213114754099571,-0.0012868852459016879,-0.00036475409835748303,0.003020491803278693,-0.003499999999999998,0.018833341120738464,0.3227218259774164
2025-09-03 22:29:46.460697,0.0007213114754099571,-0.0012868852459016879,-0.0003647540983592311,0.003020491803278693,-0.003499999999999998,0.018756049997994472,0.32310158461776173
2025-09-03 22:29:46.481153,0.0007213114754099571,-0.0012868852459016879,-0.000364754098358784,0.003020491803278693,-0.003499999999999998,0.024375108696407438,0.323600004359082
2025-09-03 22:29:46.501660,0.0007213114754099571,-0.0012868852459016879,-0.0003647540983587761,0.003020491803278693,-0.003499999999999998,0.052007796197411894,0.32516759511848553
2025-09-03 22:29:46.522026,0.0007213114754099571,-0.0012868852459016879,-0.00036475409835878966,0.003020491803278693,-0.003499999999999998,0.05347460495554184,0.32592125961995244
2025-09-03 22:29:46.542320,0.0007213114754099571,-0.0012868852459016879,-0.0003647540983587887,0.003020491803278693,-0.003499999999999998,0.04771270523108921,0.3269931195576147
2025-09-03 22:29:46.562818,0.0007213114754099571,-0.0012868852459016879,-0.0003647540983587883,0.003020491803278693,-0.003499999999999998,0.03987588250066209,0.3281180312329881
2025-09-03 22:29:46.583193,0.0007213114754099571,-0.0012868852459016879,-0.0003647540983587883,0.003020491803278693,-0.003499999999999998,0.023077232306214685,0.3279698649115002
2025-09-03 22:29:46.603444,0.0007213114754099571,-0.0012868852459016879,-0.0003647540983587883,0.003020491803278693,-0.003499999999999998,0.05152304807117835,0.3295424598637675
2025-09-03 22:29:46.623935,0.0007213114754099571,-0.0012868852459016879,-0.0003647540983587883,0.003020491803278693,-0.003499999999999998,0.0535578703378849,0.3303201779965535
2025-09-03 22:29:46.644434,0.0007213114754099571,-0.0012868852459016879,-0.0003647540983587883,0.003020491803278693,-0.003499999999999998,0.04771876545917834,0.3313998462345342
2025-09-03 22:29:46.664808,0.0007213114754099571,-0.0012868852459016879,-0.0003647540983587883,0.003020491803278693,-0.003499999999999998,0.03987291255185862,0.3325196009508831
2025-09-03 22:29:46.685265,0.0007213114754099571,-0.0012868852459016879,-0.0003647540983587883,0.003020491803278693,-0.003499999999999998,0.017449259421001798,0.3322570073406341
2025-09-03 22:29:46.705748,0.0007213114754099571,-0.0012868852459016879,-0.0003647540983587883,0.003020491803278693,-0.003499999999999998,0.018265434576164096,0.3326607546326251
2025-09-03 22:29:46.726246,0.0007213114754099571,-0.0012868852459016879,-0.0003647540983587883,0.003020491803278693,-0.003499999999999998,0.024461410343664333,0.3331771839622262
2025-09-03 22:29:46.746747,0.0007213114754099571,-0.0012868852459016879,-0.0003647540983587883,0.003020491803278693,-0.003499999999999998,0.052013737621755415,0.33474313907675635
2025-09-03 22:29:46.767118,0.0007213114754099571,-0.0012868852459016879,-0.0003647540983587883,0.003020491803278693,-0.003499999999999998,0.05347155889635136,0.33549579188292866
2025-09-03 22:29:46.787322,0.0007213114754099571,-0.0012868852459016879,-0.0003647540983587883,0.003020491803278693,-0.003499999999999998,0.04771282282969187,0.3365636520234587
2025-09-03 22:29:46.807991,0.0007213114754099571,-0.0012868852459016879,-0.0003647540983587883,0.003020491803278693,-0.003499999999999998,0.03987595900703148,0.3376949642731597
2025-09-03 22:29:46.828490,0.0007213114754099571,-0.0012868852459016879,-0.0003647540983587883,0.003020491803278693,-0.003499999999999998,0.017449141819563887,0.3374329708416735
2025-09-03 22:29:46.848861,0.0007213114754099571,-0.0012868852459016879,-0.0003647540983587883,0.003020491803278693,-0.003499999999999998,0.018265358058669377,0.33783483478092796
2025-09-03 22:29:46.869359,0.0007213114754099571,-0.0012868852459016879,-0.0003647540983587883,0.003020491803278693,-0.003499999999999998,0.018833341120682266,0.3382359344787932
2025-09-03 22:29:46.889722,0.0007213114754099571,-0.0012868852459016879,-0.0003647540983587883,0.003020491803278693,-0.003499999999999998,0.018756049997993636,0.33861557042448837
2025-09-03 22:29:46.910110,0.0007213114754099571,-0.0012868852459016879,-0.0003647540983587883,0.003020491803278693,-0.003499999999999998,0.018747028841024953,0.33899757533964614
2025-09-03 22:29:46.930488,0.0007213114754099571,-0.0012868852459016879,-0.0003647540983587883,0.003020491803278693,-0.003499999999999998,0.018750107379170086,0.3393797619209808
2025-09-03 22:29:46.950815,0.0007213114754099571,-0.0012868852459016879,-0.0003647540983587883,0.003020491803278693,-0.003499999999999998,0.01875007531930369,0.33976088556269707
2025-09-03 22:29:46.971233,0.0007213114754099571,-0.0012868852459016879,-0.0003647540983587883,0.003020491803278693,-0.003499999999999998,0.018749989775236533,0.3401437147625017
2025-09-03 22:29:46.991735,0.0007213114754099571,-0.0012868852459016879,-0.0003647540983587883,0.003020491803278693,-0.003499999999999998,0.01874999880138055,0.3405281336758124
2025-09-03 22:29:47.011980,0.0007213114754099571,-0.0012868852459016879,-0.0003647540983587883,0.003020491803278693,-0.003499999999999998,0.01875000040775104,0.34090773335505836
2025-09-03 22:29:47.032604,0.0007213114754099571,-0.0012868852459016879,-0.0003647540983587883,0.003020491803278693,-0.003499999999999998,0.018749999995862094,0.341294427417048
2025-09-03 22:29:47.053102,0.0007213114754099571,-0.0012868852459016879,-0.0003647540983587883,0.003020491803278693,-0.003499999999999998,0.01874999998865936,0.3416787656168552
2025-09-03 22:29:47.073601,0.0007213114754099571,-0.0012868852459016879,-0.0003647540983587883,0.003020491803278693,-0.003499999999999998,0.018750000001193267,0.3420631082876611
2025-09-03 22:29:47.093723,0.0007213114754099571,-0.0012868852459016879,-0.0003647540983587883,0.003020491803278693,-0.003499999999999998,0.01875000000021317,0.3424404146297596
2025-09-03 22:29:47.114222,0.0007213114754099571,-0.0012868852459016879,-0.0003647540983587883,0.003020491803278693,-0.003499999999999998,0.01874999999994537,0.34282476624088903
2025-09-03 22:29:47.134595,0.0007213114754099571,-0.0012868852459016879,-0.0003647540983587883,0.003020491803278693,-0.003499999999999998,0.018749999999998938,0.3432067575080948
2025-09-03 22:29:47.155092,0.0007213114754099571,-0.0012868852459016879,-0.0003647540983587883,0.003020491803278693,-0.003499999999999998,0.024378079855385752,0.34370643123826977
2025-09-03 22:29:47.175469,0.0007213114754099571,-0.0012868852459016879,-0.0003647540983587883,0.003020491803278693,-0.003499999999999998,0.052007688818241436,0.34526760827252384
2025-09-03 22:29:47.195965,0.0007213114754099571,-0.0012868852459016879,-0.0003647540983587883,0.003020491803278693,-0.003499999999999998,0.05347452963623799,0.3460281723299271
2025-09-03 22:29:47.216214,0.0007213114754099571,-0.0012868852459016879,-0.0003647540983587883,0.003020491803278693,-0.003499999999999998,0.04771271545585261,0.34709809451378787
2025-09-03 22:29:47.236713,0.0007213114754099571,-0.0012868852459016879,-0.0003647540983587883,0.003020491803278693,-0.003499999999999998,0.03987588369928147,0.34822328753980614
2025-09-03 22:29:47.257211,0.0007213114754099571,-0.0012868852459016879,-0.0003647540983587883,0.003020491803278693,-0.003499999999999998,0.023077231898463557,0.3480775899234548
2025-09-03 22:29:47.277584,0.0007213114754099571,-0.0012868852459016879,-0.0003647540983587883,0.003020491803278693,-0.003499999999999998,0.05152304807531617,0.3496572230860113
2025-09-03 22:29:47.298084,0.0007213114754099571,-0.0012868852459016879,-0.0003647540983587883,0.003020491803278693,-0.003499999999999998,0.05355787034922547,0.35043428946621163
2025-09-03 22:29:47.318582,0.0007213114754099571,-0.0012868852459016879,-0.0003647540983587883,0.003020491803278693,-0.003499999999999998,0.04771876545798499,0.3515138498906774
2025-09-03 22:29:47.338954,0.0007213114754099571,-0.0012868852459016879,-0.0003647540983587883,0.003020491803278693,-0.003499999999999998,0.03987291255164535,0.35263421025429564
2025-09-03 22:29:47.359582,0.0007213114754099571,-0.0012868852459016879,-0.0003647540983587883,0.003020491803278693,-0.003499999999999998,0.017449259421056334,0.3523746227553493
2025-09-03 22:29:47.379827,0.0007213114754099571,-0.0012868852459016879,-0.0003647540983587883,0.003020491803278693,-0.003499999999999998,0.018265434576165068,0.3527741582896039
2025-09-03 22:29:47.400075,0.0007213114754099571,-0.0012868852459016879,-0.0003647540983587883,0.003020491803278693,-0.003499999999999998,0.018833330488278493,0.3531704869808818
2025-09-03 22:29:47.420573,0.0007213114754099571,-0.0012868852459016879,-0.0003647540983587883,0.003020491803278693,-0.003499999999999998,0.015942008875821808,0.3534950093586333
2025-09-03 22:29:47.441152,0.0007213114754099571,-0.0012868852459016879,-0.0003647540983587883,0.003020491803278693,-0.003499999999999998,0.007746264706376638,0.3534050853239198
2025-09-03 22:29:47.461542,0.0007213114754099571,-0.0012868852459016879,-0.0003647540983587883,0.003020491803278693,-0.003499999999999998,0.03464553137396178,0.3547805230759517
2025-09-03 22:29:47.482083,0.0007213114754099571,-0.0012868852459016879,-0.0003647540983587883,0.003020491803278693,-0.003499999999999998,0.03899324721606172,0.3551927917930721
2025-09-03 22:29:47.502578,0.0007213114754099571,-0.0012868852459016879,-0.0003647540983587883,0.003020491803278693,-0.003499999999999998,0.03714976338269634,0.3559036608095924
2025-09-03 22:29:47.522819,0.0007213114754099571,-0.0012868852459016879,-0.0003647540983587883,0.003020491803278693,-0.003499999999999998,0.040526306479336596,0.35734298616271915
2025-09-03 22:29:47.543191,0.0007213114754099571,-0.0012868852459016879,-0.0003647540983587883,0.003020491803278693,-0.003499999999999998,0.017691472822237,0.3570705530302361
2025-09-03 22:29:47.563687,0.0007213114754099571,-0.0012868852459016879,-0.0003647540983587883,0.003020491803278693,-0.003499999999999998,0.018223688896442148,0.3574660621757529
2025-09-03 22:29:47.584060,0.0007213114754099571,-0.0012868852459016879,-0.0003647540983587883,0.003020491803278693,-0.003499999999999998,0.024458395555966465,0.3579804749634863
2025-09-03 22:29:47.604562,0.0007213114754099571,-0.0012868852459016879,-0.0003647540983587883,0.003020491803278693,-0.003499999999999998,0.05201522439538522,0.35954496385187124
2025-09-03 22:29:47.625012,0.0007213114754099571,-0.0012868852459016879,-0.0003647540983587883,0.003020491803278693,-0.003499999999999998,0.05347150479982667,0.3603027371436573
2025-09-03 22:29:47.645556,0.0007213114754099571,-0.0012868852459016879,-0.0003647540983587883,0.003020491803278693,-0.003499999999999998,0.047712785174229756,0.361387221225534
2025-09-03 22:29:47.665931,0.0007213114754099571,-0.0012868852459016879,-0.0003647540983587883,0.003020491803278693,-0.003499999999999998,0.039875964130725465,0.36250837708076344
2025-09-03 22:29:47.686188,0.0007213114754099571,-0.0012868852459016879,-0.0003647540983587883,0.003020491803278693,-0.003499999999999998,0.01744914241768139,0.36224197998901514
2025-09-03 22:29:47.706687,0.0007213114754099571,-0.0012868852459016879,-0.0003647540983587883,0.003020491803278693,-0.003499999999999998,0.018265357854581263,0.3626458429428746
2025-09-03 22:29:47.727060,0.0007213114754099571,-0.0012868852459016879,-0.0003647540983587883,0.003020491803278693,-0.003499999999999998,0.018833341122805616,0.3630445242736392
